Time,ax,ay,az
0.13868093490600586,0.06288733254296709,0.00884635743156531,-4.750663398939091
0.2755889892578125,0.06280453736139005,0.008863279947757624,-4.7512636754487945
0.46353888511657715,0.06287038818053146,0.008832889742708997,-4.751208814330338
0.6089959144592285,0.06297618641602407,0.008837813469833741,-4.750730510598561
0.7466988563537598,0.0630694719555825,0.008850931618796982,-4.750570188300938
0.8845930099487305,0.06310932782577122,0.008867864537962303,-4.7509243887259185
1.0282220840454102,0.06309378994528629,0.008839787954110683,-4.751482587290399
1.1680099964141846,0.06291176704596857,0.008825526518413847,-4.751418671424237
1.3069429397583008,0.06285308595582437,0.008788677107424477,-4.75090521396607
1.442789077758789,0.0628263752823287,0.008758898597188728,-4.750040219244012
1.5825040340423584,0.06289033276038264,0.00876287149258053,-4.749585351329826
1.7715568542480469,0.06293282266333701,0.008825708570441489,-4.749542208120167
1.965127944946289,0.06306547721394738,0.008863683583110338,-4.749663115633656
2.1002979278564453,0.06301559703896804,0.008881727539792926,-4.749822372666843
2.23500394821167,0.06299809923836838,0.008844611812694548,-4.7502010741738525
2.3742189407348633,0.06296502610658096,0.008849012270276985,-4.750506805066994
2.5136899948120117,0.06302382787121207,0.008875327630798329,-4.750649017869204
2.615097999572754,0.06304443408014655,0.008932543982343,-4.750477510295003
2.718595027923584,0.06311517013541258,0.008968925259547005,-4.750262326878925
2.852976083755493,0.06317381793604317,0.008988399625018208,-4.7502255752558815
2.989722967147827,0.06319187749718527,0.00898022913001763,-4.750509468228084
3.0971570014953613,0.06317737575281195,0.008952968139249846,-4.75083011282333
3.2867140769958496,0.06316812542921313,0.008885874164833963,-4.751002153029749
3.43277907371521,0.06311840337942351,0.008823063094405524,-4.750581373577516
3.5707318782806396,0.06308721942753436,0.008833336030251045,-4.750094015098032
3.6789438724517822,0.06304331472025088,0.008903488478731316,-4.749862320083195
3.787724018096924,0.06305210315184814,0.008989216258399347,-4.7498617874509765
3.85994291305542,0.06302537583359567,0.00906769628677262,-4.749950737031385
3.9654829502105713,0.06304235348554493,0.009149548958995125,-4.750197878380544
4.102102994918823,0.06303544591146754,0.009209838348766396,-4.750411996532187
4.2367188930511475,0.06300866449775543,0.00925412276456467,-4.7505808409452985
4.33806300163269,0.06301379940523223,0.009254041621375208,-4.750620255729431
4.4728028774261475,0.06305407971671968,0.009225168169791164,-4.750608537820635
4.6086108684539795,0.06303056483653213,0.009215218766406196,-4.75049455452598
4.747278928756714,0.06306990888044885,0.009194169390821563,-4.750399745991173
4.817631959915161,0.06312658843858629,0.00917485315054008,-4.750405604945571
4.953052043914795,0.06312456610063352,0.009171668800502296,-4.7504066702100065
5.087737083435059,0.06314946249563655,0.009126259823321842,-4.75051053349252
5.222463846206665,0.06314042023149789,0.00908254132925521,-4.750576579887554
5.356158971786499,0.06310851223268739,0.009045228985966979,-4.750590960957441
5.494386911392212,0.06307118636553424,0.009061765551860688,-4.750561133553232
5.600502967834473,0.06304518725539235,0.009094946874567396,-4.750512131389174
5.712807893753052,0.06302209681650352,0.009117875027077296,-4.750398680726737
5.8195459842681885,0.06302429808559204,0.00910654618947145,-4.750237293164678
5.9547319412231445,0.06301972077746847,0.009085675745022557,-4.750121711973368
6.059714078903198,0.06301969997152244,0.009078502895133457,-4.7501621920219375
6.200690031051636,0.06308031601464617,0.009095212150379102,-4.750489760836017
6.335582971572876,0.06311682212752627,0.009175386823055397,-4.750779512762618
6.47089695930481,0.06313224765590271,0.009238511022971381,-4.750721988483073
6.66295599937439,0.06315482210733034,0.00927292509797955,-4.75021279208265
6.797601938247681,0.06324249420265358,0.009206682086755732,-4.749936888593717
6.941595077514648,0.06337938068268366,0.009110730265215318,-4.74989853907402
7.04940390586853,0.06347770542236723,0.009054606225836499,-4.7498804295786075
7.186585903167725,0.06347004883423325,0.009058944265580886,-4.7497856210438005
7.371933937072754,0.0632846387269041,0.00913879644609393,-4.749672703013581
7.506703853607178,0.06310366028607639,0.009209766568252639,-4.749954465456912
7.692075967788696,0.06311463750319457,0.009191669556407711,-4.750726249540817
7.841547012329102,0.06306654663957262,0.009169513304495011,-4.751038372020574
7.981958866119385,0.06302108980871633,0.009133354650913382,-4.750870592871899
8.0921950340271,0.06297645689332228,0.009105555826441078,-4.750532371413459
8.224994897842407,0.06293588529859061,0.009076009302503409,-4.750189888897275
8.414387941360474,0.06288610499215214,0.009062735108945046,-4.749875103256427
8.556199073791504,0.06308007882686158,0.009038330774565293,-4.749920376994958
8.696073055267334,0.06320455247949837,0.009084806056479077,-4.749974172848978
8.798408031463623,0.06321648260894408,0.009122406562119633,-4.7499565959857835
8.931653022766113,0.06317017689549033,0.009134020441185902,-4.749872440095337
9.071862936019897,0.06308696143380375,0.009111415821136552,-4.749740879937487
9.21519684791565,0.06307127375050751,0.009064964466060687,-4.749687084083468
9.35653305053711,0.06309119752441267,0.009039207745189877,-4.749725433603165
9.495213985443115,0.06314455229237673,0.009035171391662726,-4.749778696824967
9.631689071655273,0.06322864992617439,0.009047249243325155,-4.749858059025451
9.768513917922974,0.06343695489649981,0.008974150672888984,-4.749867113773157
9.95725393295288,0.06400760373907655,0.00856495857214156,-4.749462845919683
10.060630083084106,0.06491290373975694,0.0075456019358460585,-4.748126471684681
10.216423988342285,0.06514187733685492,0.006805369028777429,-4.74722206217849
10.32603907585144,0.06397771391702961,0.006401713390264928,-4.746981312415947
10.458781957626343,0.061459441273818284,0.006574198323780144,-4.747435115065697
10.594718933105469,0.05951880827104516,0.0064781211464149824,-4.7467645311032145
10.729876041412354,0.057575645265236446,0.005219642292703437,-4.742571117650776
10.9164719581604,0.05661297911020006,0.0026718644773721582,-4.734199204448003
11.108643054962158,0.056818729110354696,-0.0005572049505211701,-4.7209787401646315
11.250977039337158,0.0582768430966867,-0.00206037044187364,-4.71008854183508
11.355455875396729,0.05908048108394254,-0.0023328940048755104,-4.705353974049136
11.492109060287476,0.05872085030705176,-0.0022611340369911594,-4.7017698918541075
11.632631063461304,0.05569752164667452,-0.0012022087825991259,-4.698975703238396
11.776829957962036,0.050636754077899776,0.0009430179948973713,-4.698166634899231
11.881794929504395,0.04739573696554378,0.0027381327158055215,-4.698638014412174
12.01799201965332,0.045968969217479845,0.0037330829371266696,-4.699513661778592
12.15477991104126,0.04721886561845969,0.0008060310611591887,-4.69989822224
12.290565967559814,0.04859356440602337,-0.013752942537386681,-4.696756224785925
12.395901918411255,0.047892786854682644,-0.03826111523251801,-4.689898052346752
12.531774997711182,0.045537666117752305,-0.07728103996100526,-4.67939987132966
12.666326999664307,0.04098138448322263,-0.1514345134720919,-4.662163892754667
12.766664981842041,0.03722166681430327,-0.2200158217448921,-4.64934503316368
12.900431871414185,0.03373288209381283,-0.2957181065221848,-4.638137918664409
13.0349280834198,0.030446449762492583,-0.4015748649797402,-4.626179260105517
13.172065019607544,0.030142075417031743,-0.48027234045601774,-4.618992453587829
13.315268993377686,0.033898351782480025,-0.5780097532506805,-4.61069457626336
13.448596954345703,0.04158151951249359,-0.6634913652878259,-4.601596152715214
13.635205030441284,0.04984629041566142,-0.7363804198476134,-4.591459628974154
13.74141001701355,0.053642231236595075,-0.7988132381774772,-4.583813693484537
13.848903894424438,0.05248524586814537,-0.8396938927536568,-4.581472774886357
13.986221075057983,0.04910264429314883,-0.8750512178080393,-4.581530299165903
14.175063848495483,0.045739192510865646,-0.9189843876256677,-4.580339333526418
14.316910982131958,0.04806703249137949,-0.9392177540075447,-4.575297436950681
14.448572874069214,0.05246027457173667,-0.9482311561378907,-4.569649404910841
14.583482027053833,0.05483316774775408,-0.9504204077119903,-4.567360151637809
14.72123408317566,0.05660204766616312,-0.9509072335592568,-4.566126575420884
14.858875036239624,0.057539671784574364,-0.9507240746552865,-4.565650934850196
14.931992053985596,0.05789529117507321,-0.950641250345385,-4.565395271385548
15.035311937332153,0.058400567735266896,-0.9505700773652527,-4.564969698243353
15.16943907737732,0.05872945148513487,-0.9505260020492119,-4.564727883216374
15.305810928344727,0.058960118686238565,-0.9504783980447268,-4.564719361100886
15.4080810546875,0.058912348234185265,-0.950426399824443,-4.564937740310272
15.516268014907837,0.05892667520861205,-0.9504027642697686,-4.5649611761278654
15.654237031936646,0.05903768325298712,-0.9504135500721833,-4.564737470596299
15.76059889793396,0.059338316689354235,-0.9505088912392081,-4.564142520408775
15.900593042373657,0.05936113248975565,-0.950551634974704,-4.5638799327252935
16.006855964660645,0.05892177748891983,-0.9501671410923237,-4.564859976006442
16.11092185974121,0.057999549770560606,-0.9485183114824284,-4.568007832414916
16.220074892044067,0.05712061506467199,-0.9437313460020382,-4.574556012903202
16.37455987930298,0.05748396594471047,-0.9326980693429218,-4.585272040497464
16.47685694694519,0.06264412351760482,-0.9014920797957547,-4.604321099142583
16.673310041427612,0.07497019011600828,-0.8244797860782521,-4.634126132798313
16.778780937194824,0.08154777356720526,-0.7547939816776119,-4.65667085669027
16.847585916519165,0.08423099158924416,-0.6986922962071935,-4.674303646267685
16.981952905654907,0.08556674996824384,-0.601234515326989,-4.704251425357843
17.115973949432373,0.08489485939235207,-0.4497913299365976,-4.746969061874933
17.250768899917603,0.08488589619080827,-0.32263993540276853,-4.7785536197710545
17.387496948242188,0.08599774097878113,-0.14146047584704075,-4.815714836989802
17.531898975372314,0.08606959639394283,0.04134989939906235,-4.842924886479359
17.71731185913086,0.08215979295284069,0.21234675004330456,-4.857972279270525
17.90835690498352,0.07268353342503898,0.3973440674034995,-4.862638670132562
18.046009063720703,0.06463283906162148,0.5456371659880044,-4.859594677006601
18.181724071502686,0.06284130146800077,0.6147595786600382,-4.8541106956899105
18.36962604522705,0.06502782330198306,0.6972313526122033,-4.840210592696351
18.48067808151245,0.06930116903782704,0.7313948491289305,-4.832226435748293
18.617416858673096,0.0779603291313004,0.7661993685200398,-4.824846283735466
18.72053599357605,0.08557307497583277,0.7878938116549615,-4.822408958705825
18.827264070510864,0.09237863333871896,0.8076864914554577,-4.821368195351822
18.93858003616333,0.09754549874860893,0.8268148457220336,-4.820678436629492
19.07409691810608,0.10091858368389764,0.8463977350076587,-4.820165511803543
19.21527099609375,0.10366134832343503,0.8720873192518629,-4.818138313581774
19.40353798866272,0.10568802223536373,0.8962023095015575,-4.809682244488554
19.59117102622986,0.10659799109033019,0.9049857476717752,-4.799698586194066
19.784687995910645,0.10719408144369558,0.906962079516723,-4.790678992214185
19.92387294769287,0.10722217779319591,0.9066524870400012,-4.788448861117353
20.034677028656006,0.1068593054499158,0.9063727885465157,-4.788832356314324
20.13585591316223,0.1056058720381132,0.9049755610806056,-4.788381749457883
20.26925802230835,0.10220335917277912,0.9006002537257145,-4.785496480732891
20.40844202041626,0.09243795525200048,0.8837008987125077,-4.773150598551502
20.510642051696777,0.08124788498370553,0.857051777527548,-4.756140456036947
20.649500846862793,0.06521882188641219,0.7990999274688242,-4.7288728822678445
20.8038489818573,0.05524448049454921,0.7408739049758768,-4.710323432643224
20.906754970550537,0.045291673256813055,0.6508087929656233,-4.692520733388263
21.043535947799683,0.03890046947002958,0.5784303995448585,-4.683861198787761
21.177254915237427,0.03142871511867627,0.4772742202798338,-4.675619780478402
21.367719888687134,0.027650222164071852,0.3713121670906793,-4.668915538750237
21.475125074386597,0.030396717309729954,0.266349381876793,-4.665173264786457
21.57552194595337,0.0353333690881394,0.19704247872024389,-4.667679299372222
21.709079027175903,0.040454632025550975,0.14340621462896627,-4.67724430874335
21.847847938537598,0.04493623695863915,0.10100389638494266,-4.697977017829617
21.97597599029541,0.04545958556354255,0.08782894718907643,-4.714565315627502
22.115561962127686,0.042047710022501156,0.08377666462965505,-4.731054011200619
22.256603002548218,0.034683863629566505,0.08360105412289955,-4.73920914309066
22.44238591194153,0.02599149724625122,0.08603790477697089,-4.744871556200386
22.582104921340942,0.02439165523625116,0.09086922853426771,-4.746110458739491
22.717841863632202,0.02743769150611052,0.10088759946909025,-4.741096791671308
22.903434991836548,0.035225502741612784,0.10913946236334962,-4.723828855163235
23.040113925933838,0.04902011958887,0.1101744915986305,-4.690399791896123
23.142024040222168,0.05842288835415312,0.10801775555696505,-4.67214115946254
23.27458906173706,0.06784768645507824,0.10582362706911921,-4.658303374438488
23.463396072387695,0.07835114802126952,0.10329302482229867,-4.646732472134312
23.599200010299683,0.08939817324951359,0.09757065729853179,-4.639290534784195
23.733808994293213,0.09611799447005603,0.09243500913004457,-4.637587709583198
23.875669956207275,0.10435293796901499,0.08624725420578634,-4.638581068669798
24.009240865707397,0.10943303426163882,0.08242669995071548,-4.640684433298742
24.144679069519043,0.11245162748870276,0.08112445578955876,-4.642026666488142
24.28274893760681,0.1257240899923579,0.08004878838051895,-4.64284319167836
24.388115882873535,0.1525065856136601,0.07818171271929164,-4.642282862585008
24.523771047592163,0.21925830221757586,0.073142853811672,-4.640911334623617
24.71642804145813,0.34551096310728724,0.06423483795908755,-4.642855442219375
24.855082035064697,0.46134199221648925,0.05821822026319133,-4.6508252180975465
24.96801996231079,0.5477650316989776,0.054746223860541406,-4.65914067228521
25.106261014938354,0.6304676351386254,0.051017249057455645,-4.666786607774827
25.240889072418213,0.7330731066688712,0.04355548364078474,-4.672789905504083
25.3507239818573,0.8035766346822202,0.0361342773352779,-4.674119355520251
25.539686918258667,0.8884914594603694,0.025942984021925145,-4.673634127569638
25.674511909484863,0.9802107939817256,0.016881880099147772,-4.672690303279315
25.807931900024414,1.0275398270843414,0.01401483322167695,-4.672352081820875
25.998288869857788,1.0916662161304138,0.011617323490630417,-4.671325699536758
26.134422063827515,1.1269810637654096,0.010504647505114206,-4.6705358059574404
26.238821029663086,1.1436190295176252,0.009989493322049304,-4.67038560367196
26.37122893333435,1.1529795081170355,0.00990249533937698,-4.670720096704874
26.510180950164795,1.157695966407566,0.010392263147410163,-4.671598407232382
26.64779806137085,1.1578043570639323,0.011385026143656354,-4.6725848421001475
26.78150987625122,1.1558754294863878,0.012388477154371087,-4.673396040968186
26.91827893257141,1.1461353172735864,0.013981650858672943,-4.674418694826776
27.026830911636353,1.1271131565554775,0.015231868711518739,-4.674748394169728
27.13100290298462,1.0915834583995396,0.016476747758616767,-4.6742024461462615
27.266762018203735,1.0342575177760118,0.018019359893207246,-4.672641833747475
27.40224289894104,0.9182062119551465,0.020634207496042164,-4.6687701301547175
27.507834911346436,0.8011855820765198,0.02276598680546113,-4.664635306246261
27.699249029159546,0.6145956610949438,0.024772508078078504,-4.65782240754562
27.836230039596558,0.369474552649011,0.025767591977602807,-4.649352490014732
27.97182607650757,0.23689973042377646,0.027142461373923822,-4.646020342858825
28.158164024353027,0.0537866203407586,0.033504072863688394,-4.644846954082536
28.29590392112732,-0.06317702621291887,0.04131292723299148,-4.6456027591999005
28.399231910705566,-0.13680192466546282,0.047088108570126,-4.645209676623005
28.508594036102295,-0.19985580880628995,0.05184426044446612,-4.643250655325143
28.6434109210968,-0.2537381656270477,0.05518291153909794,-4.63953075191452
28.782270908355713,-0.31477026109207074,0.05772572271504082,-4.632781236447824
28.919020891189575,-0.3672528770886397,0.05913250011017235,-4.62569776058043
29.115700006484985,-0.42408849646597035,0.06087945056148027,-4.619049445235157
29.249104976654053,-0.4539660013928649,0.06219178144526565,-4.616518376935145
29.43461298942566,-0.49665294497839074,0.06489308815677107,-4.614157218312681
29.57728099822998,-0.5246584473960414,0.06753967106906457,-4.6138381716140895
29.71821403503418,-0.5469151171265925,0.07005251336036565,-4.61377105995462
29.82189393043518,-0.5588429828853803,0.07134134184753109,-4.613161728697209
29.958136081695557,-0.5661271279409105,0.0719684497052175,-4.611968099896636
30.064483880996704,-0.5692020137355159,0.07214551662819414,-4.610767546877228
30.20027995109558,-0.5692196571777377,0.07218304223242904,-4.610102821869145
30.305585861206055,-0.5682783628904492,0.07231699091288162,-4.6105022960326565
30.408150911331177,-0.5674131684313097,0.0725687844715702,-4.61130657068186
30.543696880340576,-0.5659165384777125,0.07302940314923463,-4.61266744599889
30.681346893310547,-0.5596770849387931,0.07440150535473548,-4.616418774710376
30.783714056015015,-0.546695839100338,0.07602271299069963,-4.621199148867069
30.886975049972534,-0.5210298238317812,0.07787837034875321,-4.627683946121412
31.023902893066406,-0.47824490920765406,0.0794188176246607,-4.635251052042762
31.158406972885132,-0.3897659759426518,0.07962230809907797,-4.645585714968925
31.266150951385498,-0.30098653823814764,0.07759100694475525,-4.6526239170977854
31.460819959640503,-0.16652496624913282,0.07212422798423032,-4.661492776159967
31.620421886444092,-0.019367934734952935,0.06384879195313455,-4.672309471243433
31.757034063339233,0.052145156035753044,0.05800215051381264,-4.6753470727827775
31.899813890457153,0.08431245935146536,0.05091641095949331,-4.661748439624615
32.035605907440186,0.09339549482193846,0.04294489986542443,-4.6330139967270965
32.14279794692993,0.09760111720349957,0.032963419953483286,-4.5858078685087875
32.28234100341797,0.10061507486579108,0.01939776838094563,-4.497762164974114
32.38691806793213,0.1017454369457184,0.010842118909200383,-4.418859093461682
32.49147391319275,0.10198838381616088,0.003891124122843084,-4.3342715046024765
32.600592851638794,0.10085877075029015,-0.001987062381568518,-4.248532098571811
32.75856804847717,0.09800243061263929,-0.007088184252976234,-4.164923754045428
32.867435932159424,0.09169237833769757,-0.011002265396579317,-4.0630447928605555
32.96993803977966,0.08580310551498838,-0.009986737574499452,-3.9970271599663634
33.10565495491028,0.07987821291269936,-0.00550268534201112,-3.9398983598425286
33.2411949634552,0.07387790291729068,0.0031544427907594266,-3.8762733108716634
33.34287786483765,0.07155862250296793,0.009113923977928812,-3.838478527629586
33.44829487800598,0.07122417108194601,0.01320177118117306,-3.8102285137343523
33.586915016174316,0.07217740798224784,0.015340465346750525,-3.79196428866248
33.72486591339111,0.07262243884515689,0.016603523589180245,-3.7839135526871703
33.91808795928955,0.06734773205587552,0.019156496389157455,-3.798959081265573
34.02843904495239,0.06021316926863447,0.023162327593502972,-3.8223954314904884
34.16591787338257,0.04733219976759937,0.03317178942224137,-3.873706822529154
34.267536878585815,0.036742193788358926,0.04480395275386787,-3.929497916837442
34.37295198440552,0.026999345593656486,0.059861894159663816,-4.000734546519863
34.559216022491455,0.018084486665427293,0.08340140026492766,-4.115537828474889
34.697978019714355,0.01846730983034238,0.10523665804248734,-4.242856902288852
34.832414865493774,0.03238925282543521,0.11781090628735097,-4.375257021146578
34.937926054000854,0.05066638590621611,0.11849774385486081,-4.48002977317193
35.075716972351074,0.0717955439714441,0.11231211113709623,-4.592490272316015
35.20951795578003,0.09830935992827092,0.09585237744083425,-4.750974456154411
35.31174993515015,0.11350972635692647,0.08018816325169256,-4.868274984263606
35.416687965393066,0.12387563149162595,0.06429096824025017,-4.97439236632334
35.55077004432678,0.1295272504765592,0.05076351638459834,-5.06147773396893
35.693588972091675,0.13099248009642875,0.03951229327977245,-5.1409336777236625
35.832552909851074,0.13026686856792305,0.033983866301201385,-5.1815628633139115
35.96787095069885,0.13369435689085502,0.02713901174807433,-5.194944182527124
36.10968089103699,0.15342978705029287,0.0021450391988894445,-5.2033384662830535
36.24854397773743,0.2002877735351008,-0.05144826087393895,-5.211309840057878
36.43577599525452,0.27696868678921355,-0.13236399141306276,-5.222650112611654
36.538076877593994,0.3757689671749269,-0.2248787871848904,-5.232922457568307
36.673744916915894,0.4575811427041066,-0.2901893508096666,-5.233467872959555
36.810603857040405,0.5697556183471162,-0.3610504414888724,-5.217108607015417
36.950238943099976,0.6822351590929944,-0.4071100788579018,-5.178443236412993
37.083876848220825,0.7657974975115469,-0.42270381914669725,-5.135465675373512
37.18724799156189,0.8464675098282188,-0.42015647227452285,-5.0810929806618
37.32599091529846,0.9430148225107524,-0.3886469822316277,-4.992596670270685
37.51905608177185,1.0329034335197609,-0.31281353677064866,-4.863443477413984
37.63291692733765,1.0658002640430193,-0.25442794099413507,-4.781142212350612
37.76972484588623,1.0826843724589854,-0.1692059871632724,-4.669227128597775
37.905927896499634,1.0751879068855485,-0.10402104984054227,-4.585285356302914
38.02103304862976,1.0397724583403751,-0.02190039495275273,-4.4749718976296515
38.13824391365051,0.9945281477390734,0.032905019743610285,-4.39431327032664
38.2760488986969,0.9324426056153559,0.0796921411762869,-4.314490076657586
38.409817934036255,0.8235836989504677,0.12408920036629349,-4.204083407346171
38.54848790168762,0.6875341838719795,0.1404104912977634,-4.089817284983013
38.682514905929565,0.5715159678276586,0.1331497071584202,-4.010293430620484
38.78547286987305,0.4462347115903104,0.11336699756725503,-3.946202594774964
38.919853925704956,0.2675251841428198,0.07860673658451148,-3.892793698061752
39.07354688644409,0.12801579004464153,0.05421270530922526,-3.8785737494212738
39.18452501296997,-0.05203270405872445,0.032808120211228836,-3.8883329032358693
39.28913497924805,-0.17339069540789798,0.028802965200128847,-3.9126020239336525
39.423901081085205,-0.2782846046180921,0.03620496345627349,-3.9493786806909927
39.57050895690918,-0.3927381302982074,0.06218897680374266,-4.019229135026027
39.70925307273865,-0.48513297563006225,0.10179485522869619,-4.115817993021566
39.847805976867676,-0.5600333493136184,0.14750080816020628,-4.226779132471935
39.98370385169983,-0.6022503115457725,0.1810425730756977,-4.303829709130108
40.12153100967407,-0.6364279228162771,0.222868866220694,-4.394830988842552
40.232616901397705,-0.6428317599734817,0.25178803262932353,-4.459141535478003
40.41631293296814,-0.6251884509097613,0.2893696631156539,-4.556677147241065
40.519410848617554,-0.5771144650712231,0.3263870363460236,-4.682527487713849
40.62486505508423,-0.5410872551341448,0.3428986018150013,-4.758167121626498
40.766128063201904,-0.4427804584984231,0.36214410188002705,-4.931007341637076
40.957123041152954,-0.27577317713112015,0.33553259784546474,-5.170986385360771
41.10007095336914,-0.12050327892563702,0.2585880316434342,-5.354317862169608
41.283514976501465,0.03822790478148688,0.14336909682127327,-5.501202381564056
41.387722969055176,0.19464313702565061,0.015721098685847402,-5.5856118049463355
41.53259491920471,0.34912753586761486,-0.10147836350027549,-5.59630279882635
41.635984897613525,0.46249873623596516,-0.17386525406939327,-5.5616348330201335
41.770423889160156,0.5726264394231944,-0.23096459297366906,-5.50074218732769
41.908217906951904,0.7125617728482172,-0.2839720015077949,-5.39051927613149
42.00945806503296,0.8115183142108909,-0.3071771560605777,-5.290422768664208
42.116244077682495,0.9035138185372884,-0.3157759372987119,-5.176809653400338
42.25154900550842,0.9845484841862194,-0.30970279816986795,-5.050862906496093
42.39242100715637,1.0683850616180228,-0.2803170459382565,-4.869560225805678
42.533058881759644,1.1170416139450159,-0.23149650946714195,-4.683719518617769
42.67305588722229,1.1315663613722535,-0.18446686560532158,-4.552185459746537
42.78434205055237,1.1298689956514916,-0.13033414667496118,-4.435187733053285
42.91923689842224,1.1035451130146579,-0.05492319507616637,-4.303492819252213
43.02542805671692,1.0632189285774327,-0.003125988839061937,-4.219362495152174
43.158103942871094,0.9747160268626196,0.048252367697302984,-4.115579373787894
43.31931185722351,0.8760653495511415,0.0641454889045154,-4.038419074892811
43.4245228767395,0.7052939396543637,0.04036528297097882,-3.933082531664689
43.52989387512207,0.5638700323380411,-0.014488786430143185,-3.855967772824245
43.666215896606445,0.431329698048923,-0.09035642854399455,-3.7879495733191857
43.80450201034546,0.2890740855241687,-0.194531933405383,-3.7189523957974124
43.90769290924072,0.2078846236368768,-0.25953135659105386,-3.6856048252596585
44.10124206542969,0.11669730547753433,-0.32606259674622473,-3.670326270085874
44.28661489486694,0.010731065091744079,-0.3915451007088792,-3.700690034938303
44.47602891921997,-0.08903429389844629,-0.44505170214458356,-3.7814626455359703
44.616787910461426,-0.1809948026236444,-0.4670345989150745,-3.9027808184656583
44.753562927246094,-0.23470618450241906,-0.4517872693050711,-3.997821580919534
44.88627290725708,-0.3075106836975965,-0.38985575776090103,-4.15460959745966
45.073482036590576,-0.38032164105841737,-0.28203491799941216,-4.3321849178884
45.18215203285217,-0.4493691523247928,-0.14120587764682918,-4.497270012804667
45.28278207778931,-0.49458296973161303,-0.025943447994521304,-4.5926228977383
45.42021608352661,-0.5312473409594928,0.09061998994574991,-4.660483970739046
45.556376934051514,-0.5627291341270512,0.2425337808678936,-4.712996181113228
45.6587929725647,-0.5728929552692841,0.35319944259531877,-4.733733151257239
45.765541076660156,-0.5727275729655901,0.46015249131560537,-4.744631871702279
45.90225100517273,-0.5602689059120359,0.5609932191495103,-4.749686018819031
46.03699803352356,-0.512774956558917,0.681250055805774,-4.756954318066076
46.1378960609436,-0.4447993343417849,0.757458940401427,-4.770787842032384
46.271218061447144,-0.34678678371700333,0.8172248692156855,-4.7922049835188005
46.405807971954346,-0.1842104531266174,0.8620324213982142,-4.815725489634162
46.542109966278076,-0.06227873781604595,0.867387372560091,-4.814536121891333
46.685678005218506,0.06860469831731168,0.8435872345302708,-4.781054860666857
46.8906569480896,0.1701727645732416,0.7818807933877261,-4.713211897161524
47.08755588531494,0.23590562232312032,0.6810869371890067,-4.630951112146721
47.27355194091797,0.30939613517034537,0.46233874683347864,-4.498708652425528
47.408231019973755,0.3233172105574893,0.3241559065637825,-4.443049384591199
47.59849691390991,0.2893568799424215,0.12512945605521367,-4.437091360600474
47.70750904083252,0.24439874264500563,0.04947129236704305,-4.483680434394211
47.84096097946167,0.18204640171433265,-0.0010030569981120524,-4.566275712441929
47.97430086135864,0.1397593317664822,-0.01685011150017557,-4.632662459463206
48.10743999481201,0.12517085988778598,-0.019688860210469693,-4.661936991429792
48.29206895828247,0.12183484282591982,-0.02074518641209281,-4.678165762480518
48.477571964263916,0.12667385646086424,-0.02102969940148654,-4.680210537565481
48.57937788963318,0.1294059518112845,-0.020204423230373816,-4.679242212193127
48.71846103668213,0.13056876284461874,-0.018902747071543345,-4.679135153117306
48.85730290412903,0.12963200425356178,-0.015198730041001366,-4.68053011689629
48.9991090297699,0.12011775306833442,-0.005545391626804063,-4.685781337933708
49.10239005088806,0.10495043480433107,0.006146602323484052,-4.690405118218304
49.20482397079468,0.08493965043293585,0.019339349445721216,-4.6924839817652195
49.34442496299744,0.06496492276598675,0.03077458241770937,-4.690224023264178
49.482226848602295,0.04651110143044671,0.03971842194814459,-4.681812162645054
49.587645053863525,0.040799557159797474,0.04203232194482755,-4.674897531190772
49.689542055130005,0.03967889065071373,0.042680776703126616,-4.670244988766404
49.82457494735718,0.040162932662403235,0.04320964720610273,-4.668390896015491
49.95727586746216,0.041362936404836126,0.043838681694390244,-4.667708061511995
50.09007692337036,0.041915001376431144,0.044326456292795066,-4.667839621669844
50.22573804855347,0.0423887194777074,0.04484849412309944,-4.668323784356021
50.36242985725403,0.04259759869214288,0.04519227909150425,-4.668649755273447
50.46782398223877,0.04263315605388464,0.04530604184313187,-4.668601818373825
50.57019400596619,0.042502382360794136,0.045390830234337265,-4.668419125523045
50.70577001571655,0.04229915820248587,0.04551333148329171,-4.667913657548149
50.813299894332886,0.042115670564568615,0.04568941220442718,-4.667520042339035
50.947850942611694,0.04199943606655427,0.045936620132613785,-4.66711044816338
51.05320191383362,0.04198962814360221,0.04601239538800495,-4.666914972139368
51.19196796417236,0.04189750357583148,0.045949757006928445,-4.666284868225456
51.29946994781494,0.04157721684285742,0.045842360874781794,-4.665646774828273
51.43416500091553,0.04054667753072684,0.04618304575723018,-4.665332521819644
51.54041886329651,0.039505747729155744,0.04720826290836981,-4.666263562936735
51.67537188529968,0.038318839249145475,0.0487639526203288,-4.667986628162017
51.783252000808716,0.03634311909901055,0.04924126598907666,-4.667482758083773
51.9254469871521,0.032401492963476566,0.04691727926976503,-4.660833910106282
52.06645202636719,0.028677415880083025,0.04355958241214994,-4.652044945876803
52.17757701873779,0.02768747521041394,0.04278560122034566,-4.648871523121864
52.277920961380005,0.028891681753942113,0.04420342241162261,-4.650134394110779
52.414690017700195,0.03174475743866302,0.04682232093214689,-4.6542329990284115
52.551307916641235,0.0355714764955385,0.0490485529946958,-4.657911357126029
52.65512990951538,0.03771517137024097,0.048944885288075266,-4.657454358682971
52.84405493736267,0.04039823126709014,0.047637081778143006,-4.65430863280337
52.949445962905884,0.04552755442798841,0.04547874783982351,-4.648707472398715
53.0528450012207,0.04869564253836827,0.04442712794318927,-4.645659750847228
53.19142699241638,0.05239820627358101,0.04262929447030402,-4.640112386296593
53.2926869392395,0.05070842223954733,0.04107180712460923,-4.63596584447934
53.4265570640564,0.040590486530658644,0.036684494738866674,-4.62657021215354
53.533180952072144,0.033766498260791276,0.03300496110529932,-4.6190334662686166
53.667465925216675,0.022171781470804813,0.02606599293596238,-4.604716844880568
53.77484107017517,0.01901415042889272,0.024786034023583665,-4.6013111944785745
53.909661054611206,0.022501869884947127,0.030408447702093912,-4.611500448809218
54.01906085014343,0.02622494204114808,0.03522435009220348,-4.621076110824707
54.15464901924133,0.03366287008546817,0.04394968973876531,-4.639832754382135
54.25861191749573,0.03671099735290217,0.04741963467513804,-4.648080031645892
54.398608922958374,0.03792434602910988,0.048706386728891056,-4.6518489372205725
54.59035396575928,0.03786271881700976,0.049039756240720135,-4.652880113194652
54.72903084754944,0.038115623413215616,0.048699142098488205,-4.651745073938059
54.833028078079224,0.038477031017896186,0.04812716583655564,-4.6500012360562755
54.93665790557861,0.038802694007320844,0.04770719365502855,-4.648828912544422
55.07237195968628,0.039193612765830846,0.04722316828809585,-4.647265636984546
55.17588496208191,0.039359856435689844,0.04711504394783863,-4.6468666954532525
55.31342601776123,0.03950659661175321,0.047119200975852676,-4.646911969191784
55.46795105934143,0.039616260592015624,0.04711997495704448,-4.6470105061521165
55.60523796081543,0.03985437216060393,0.04707905382241973,-4.646956177665879
55.741628885269165,0.039992273970799595,0.047044191379274916,-4.646774550079535
55.8777289390564,0.04016282031029475,0.04697338042260323,-4.646331400074146
56.016512870788574,0.040258981231592626,0.04687211788334217,-4.645543637023701
56.151222944259644,0.04021285028808541,0.04680660828171542,-4.64469036021044
56.252471923828125,0.04022691094640318,0.046710384942579494,-4.643793940187519
56.38922095298767,0.040202230933238714,0.04665434204639014,-4.642977414997301
56.49948287010193,0.04024055964698984,0.046646889356527124,-4.642927347568807
56.63308787345886,0.04031854033265873,0.04667249731488392,-4.6433768891608125
56.741153955459595,0.04040709876128227,0.04670954438236044,-4.644032026788972
56.88315296173096,0.04049607747001534,0.04674275067220237,-4.644582235870183
57.069809913635254,0.040516608777544164,0.04675284155602025,-4.6444868947031575
57.20567297935486,0.04055569066654108,0.0467591873695552,-4.64396012143954
57.343337059020996,0.04063117879987722,0.046770576544404495,-4.643801929670789
57.448683977127075,0.040764307726056756,0.046785947977321295,-4.643847203409321
57.58517789840698,0.04093629799820543,0.046823219749014794,-4.644165717475694
57.68674898147583,0.04107310125445144,0.04682645715421492,-4.644588627456798
57.81946086883545,0.041120309945962295,0.04682386057215209,-4.645039766945458
57.95722198486328,0.04111964831687898,0.04678996352490243,-4.645510613826184
58.09294295310974,0.041015622747986966,0.04676619481217347,-4.645629923443019
58.19962501525879,0.04104818821469159,0.046717001233412665,-4.6455510938747535
58.334009885787964,0.041035421686216024,0.04670125529346757,-4.645449361121112
58.467756032943726,0.04107278084288279,0.04665988891159807,-4.645387575783822
58.573160886764526,0.041120567939692904,0.04660967584148247,-4.645393434738221
58.76690196990967,0.04109153116143263,0.0465776887800771,-4.645348693631907
58.91747689247131,0.04108020024323218,0.046564352168680684,-4.645266668270333
59.0667450428009,0.04104335707402662,0.04661002538137554,-4.6452203292673655
59.17571496963501,0.041055869769960784,0.046630103119281216,-4.645172924999962
59.31662893295288,0.04113443718330733,0.0466272610270554,-4.645220861899583
59.50494599342346,0.041211310992648145,0.04663011144165963,-4.6456272602819295
59.66195297241211,0.04126992550376511,0.04663601200794983,-4.646276006323473
59.8027229309082,0.04131225312034056,0.04659645990457295,-4.646768158492919
59.906188011169434,0.041289121069559696,0.04655724485752154,-4.646828878565773
60.01065802574158,0.04127981248931203,0.046528262174720905,-4.646882674419793
60.147923946380615,0.04126686286851152,0.04651115552590635,-4.647300790710935
60.252331018447876,0.041301375771763266,0.046531969794301,-4.647897871427331
60.38788390159607,0.04137960196759514,0.0465823035389035,-4.648686167109995
60.492456912994385,0.041461739681278066,0.046590496920444695,-4.648994028532008
60.62723898887634,0.04142421407704317,0.04665493293525701,-4.649313607862817
60.73751497268677,0.04147739823624989,0.046650992289081525,-4.649449961710629
60.87231492996216,0.04146087831511299,0.04668306673546017,-4.649572467120773
61.04012989997864,0.04152600508733304,0.04668465630973581,-4.649625730342574
61.177074909210205,0.04165970825762263,0.04665152908248875,-4.649574597649645
61.31692695617676,0.041733773264251255,0.046608735412722535,-4.64959483767393
61.51636004447937,0.04167118481744519,0.04663163027571881,-4.6500070950106736
61.658254861831665,0.04168634402971262,0.046641421553914056,-4.6505951209793635
61.79272699356079,0.04166823037311088,0.04664131336299477,-4.65110058895426
61.89974498748779,0.04170098725451886,0.04660826519834257,-4.651276357586205
62.04012703895569,0.04172480590151825,0.0465323484625185,-4.651457985172549
62.17774200439453,0.04177681244418046,0.04647472847562111,-4.651485682047886
62.283071994781494,0.041840470316611755,0.04647575628935431,-4.651398330364131
62.47762584686279,0.04186672325929505,0.0465409288346556,-4.651182081683617
62.62473106384277,0.04188019302874597,0.04659189508001699,-4.651197528017939
62.770971059799194,0.041911634974365716,0.046574064384281064,-4.65187663409591
62.927512884140015,0.04190381609985282,0.046570544018215115,-4.652667592939663
63.03204393386841,0.04192976111453507,0.046554431893620137,-4.653625798299873
63.13503384590149,0.04186531261615515,0.04655755694671178,-4.654006630335755
63.27372598648071,0.04177568476190638,0.04654152388471166,-4.654144049448003
63.4112389087677,0.04167284097074808,0.04650958675757673,-4.654334199149835
63.5168399810791,0.04170571020426454,0.046483009242135574,-4.654736869106655
63.61614799499512,0.041726828239471034,0.046515591353597015,-4.655356320376207
63.751895904541016,0.04180864554158531,0.04655718243968349,-4.65601571906211
63.891902923583984,0.04181378461025132,0.04663665283108713,-4.65665487772373
63.99906396865845,0.041804550931409314,0.046652798245195734,-4.656851951644396
64.10345506668091,0.04183596374870464,0.04662147281287368,-4.656876985358642
64.20756602287292,0.0418493627779391,0.046607840757043835,-4.656882311680822
64.27877688407898,0.04188763323504138,0.04660507772741288,-4.656948890708074
64.38495898246765,0.041953346734939084,0.046631663565232434,-4.6571907057350534
64.51893401145935,0.041966483609253744,0.04667687072473653,-4.657574733564243
64.66058707237244,0.04194782067567717,0.04668829318909945,-4.658194184833795
64.84466791152954,0.04184725305501305,0.04666330108674474,-4.658789135021319
64.94932007789612,0.0418436036920818,0.04660910159737242,-4.659445870546133
65.05469107627869,0.04183627167670568,0.04661085761921619,-4.659993416466253
65.19236397743225,0.04187044752363196,0.0466240610725581,-4.660557473985132
65.33437204360962,0.04190490633142407,0.04664908646442644,-4.661135379941679
65.43888998031616,0.041921630150831925,0.04665017669599769,-4.661223264257651
65.58357095718384,0.04197265881403136,0.04662071963762789,-4.660790766896622
65.72236204147339,0.0419855127274802,0.04658842464822148,-4.660266656794095
65.86315989494324,0.04197600857133998,0.04653705476750737,-4.659750536174838
