Time,yaw,pitch,roll,magx,magy,magz,accelx,accely,accelz,gyrox,gyroy,gyroz
0.13914799690246582,-96.539,0.953,3.147,-0.0134,0.2388,0.3681,0.226,-0.535,-9.715,0.000831,9.4e-05,0.000256
0.2762739658355713,-96.538,0.956,3.151,-0.012,0.2481,0.3695,0.156,-0.512,-9.679,-0.000209,-0.000256,-0.000282
0.4641759395599365,-96.534,0.956,3.15,-0.0144,0.2442,0.368,0.153,-0.544,-9.708,0.000977,-0.001216,0.000167
0.6095249652862549,-96.536,0.956,3.151,-0.0109,0.2428,0.3697,0.172,-0.554,-9.704,0.001359,0.000443,0.000121
0.7472879886627197,-96.542,0.955,3.15,-0.0108,0.2455,0.374,0.187,-0.545,-9.68,-0.000374,0.000433,-0.000648
0.8849830627441406,-96.543,0.956,3.152,-0.0121,0.2415,0.3725,0.204,-0.544,-9.686,-0.000834,0.000242,0.000693
1.0286269187927246,-96.544,0.957,3.151,-0.0109,0.2441,0.3667,0.165,-0.517,-9.729,0.000567,0.000123,0.000585
1.168428897857666,-96.543,0.957,3.153,-0.0155,0.2469,0.3708,0.121,-0.498,-9.718,0.000323,0.001017,-0.000509
1.307589054107666,-96.55,0.957,3.152,-0.011,0.2401,0.3682,0.12,-0.508,-9.681,0.0005,-0.000166,0.000526
1.4435019493103027,-96.554,0.957,3.15,-0.0144,0.2428,0.3695,0.11,-0.524,-9.685,0.000668,0.000365,-0.000251
1.5829839706420898,-96.559,0.956,3.15,-0.0109,0.2401,0.3697,0.138,-0.526,-9.698,-7.5e-05,0.000508,0.000625
1.772204875946045,-96.566,0.957,3.151,-0.0133,0.2415,0.371,0.224,-0.55,-9.702,0.001138,0.001333,0.000921
1.9660069942474365,-96.576,0.957,3.153,-0.0133,0.2441,0.3681,0.14,-0.522,-9.724,7.5e-05,-0.000538,0.001317
2.100771903991699,-96.575,0.96,3.155,-0.0109,0.2428,0.3697,0.212,-0.533,-9.718,-0.000495,0.000802,-0.000167
2.235538959503174,-96.572,0.961,3.154,-0.0156,0.2442,0.3723,0.194,-0.544,-9.706,-0.001147,0.000146,-7.5e-05
2.3749210834503174,-96.575,0.964,3.153,-0.0121,0.2428,0.3711,0.17,-0.552,-9.751,-0.000133,0.000178,0.000303
2.514090061187744,-96.569,0.962,3.151,-0.0133,0.2402,0.3696,0.203,-0.536,-9.708,0.000798,-0.001282,0.000505
2.616168975830078,-96.571,0.962,3.15,-0.0121,0.2402,0.3711,0.181,-0.536,-9.684,0.000842,0.000949,0.000242
2.7198829650878906,-96.565,0.963,3.152,-0.0121,0.2415,0.3696,0.117,-0.529,-9.704,0.000663,0.000975,0.000407
2.8541970252990723,-96.561,0.962,3.151,-0.0132,0.2442,0.3724,0.167,-0.564,-9.7,-0.000151,-0.000168,0.000287
2.9903628826141357,-96.555,0.96,3.151,-0.0108,0.2442,0.374,0.165,-0.556,-9.683,-4.5e-05,7.1e-05,0.000357
3.097545862197876,-96.555,0.964,3.149,-0.0131,0.2482,0.3724,0.163,-0.519,-9.718,-0.000684,3.1e-05,0.0006
3.287379026412964,-96.553,0.966,3.151,-0.0121,0.2415,0.3725,0.177,-0.529,-9.686,-0.000991,-0.000223,0.001551
3.4332730770111084,-96.558,0.967,3.153,-0.0122,0.2414,0.3609,0.13,-0.517,-9.677,0.000597,-0.000201,0.000443
3.571415901184082,-96.557,0.97,3.151,-0.0156,0.2429,0.3694,0.098,-0.508,-9.726,0.00022,-0.001168,0.000889
3.679888963699341,-96.555,0.97,3.15,-0.012,0.2402,0.3755,0.127,-0.505,-9.711,-0.000522,0.001625,0.001316
3.788461923599243,-96.556,0.97,3.152,-0.0145,0.2441,0.3636,0.194,-0.511,-9.721,-0.000963,0.000272,-0.000103
3.860560894012451,-96.557,0.969,3.151,-0.012,0.2442,0.371,0.173,-0.552,-9.702,-0.000174,-0.000427,-9.2e-05
3.9660520553588867,-96.555,0.969,3.15,-0.0132,0.2468,0.3666,0.134,-0.541,-9.715,-0.000374,-0.001459,3.3e-05
4.102733850479126,-96.562,0.967,3.151,-0.0144,0.2429,0.3753,0.184,-0.541,-9.724,6.1e-05,-0.000155,0.000485
4.237112998962402,-96.56,0.966,3.152,-0.0109,0.2402,0.3726,0.168,-0.57,-9.696,0.000139,0.000338,0.001253
4.338705062866211,-96.56,0.966,3.154,-0.0109,0.2428,0.3726,0.128,-0.55,-9.701,-0.000952,0.000985,-0.000786
4.473237037658691,-96.562,0.968,3.152,-0.0145,0.2428,0.368,0.186,-0.559,-9.701,-2.4e-05,0.000432,0.000398
4.609060049057007,-96.56,0.97,3.151,-0.0156,0.2455,0.3708,0.17,-0.55,-9.697,-0.000437,-0.000236,-0.000162
4.747653007507324,-96.561,0.972,3.155,-0.0132,0.2442,0.3695,0.212,-0.543,-9.701,0.000602,0.001353,0.001052
4.817944049835205,-96.564,0.972,3.154,-0.0156,0.2429,0.3724,0.115,-0.518,-9.707,-0.000789,0.000416,-0.001053
4.953526973724365,-96.572,0.97,3.154,-0.0133,0.2442,0.3681,0.12,-0.522,-9.699,-0.000255,-0.000477,0.000291
5.088219881057739,-96.572,0.971,3.155,-0.0144,0.2442,0.3709,0.118,-0.526,-9.731,-0.000204,-0.000534,-0.000767
5.223026990890503,-96.572,0.972,3.156,-0.0109,0.2415,0.3726,0.152,-0.551,-9.694,0.000661,-0.00034,0.000354
5.356590986251831,-96.574,0.971,3.155,-0.0169,0.2402,0.3709,0.178,-0.561,-9.713,-0.000696,-0.0009,0.000601
5.495070934295654,-96.575,0.971,3.157,-0.0133,0.2415,0.371,0.189,-0.537,-9.698,0.001032,0.000366,0.000298
5.600939035415649,-96.581,0.972,3.156,-0.0134,0.2401,0.3652,0.157,-0.566,-9.708,-0.0006,-0.000206,0.00063
5.713814973831177,-96.577,0.972,3.156,-0.0132,0.2442,0.3724,0.097,-0.535,-9.692,0.000211,-0.001129,-0.001313
5.820065975189209,-96.578,0.975,3.155,-0.0145,0.2375,0.3725,0.148,-0.5,-9.712,-0.000673,0.000792,-0.000926
5.955244064331055,-96.578,0.977,3.156,-0.0133,0.2388,0.3696,0.111,-0.533,-9.693,-0.000287,0.000798,0.000352
6.060266971588135,-96.581,0.978,3.158,-0.0131,0.2495,0.3753,0.154,-0.541,-9.709,1.4e-05,0.001201,0.000292
6.20159387588501,-96.572,0.976,3.157,-0.0133,0.2402,0.374,0.102,-0.523,-9.685,-0.000468,0.000426,1e-05
6.33601188659668,-96.572,0.975,3.16,-0.0108,0.2428,0.374,0.122,-0.529,-9.721,0.001471,0.000292,0.000463
6.471647024154663,-96.573,0.972,3.16,-0.0132,0.2442,0.3695,0.102,-0.516,-9.71,0.000173,0.000399,0.000314
6.663414001464844,-96.575,0.97,3.162,-0.0121,0.2455,0.3652,0.181,-0.541,-9.697,0.000432,0.000254,-0.000338
6.798181056976318,-96.579,0.97,3.16,-0.012,0.2482,0.371,0.153,-0.51,-9.709,-0.000976,3.3e-05,-0.000232
6.942615985870361,-96.576,0.968,3.16,-0.012,0.2442,0.371,0.139,-0.53,-9.681,0.000306,-0.000454,0.00132
7.050027847290039,-96.58,0.967,3.159,-0.0156,0.2402,0.3724,0.155,-0.522,-9.7,7.4e-05,0.000221,0.000176
7.186954975128174,-96.579,0.969,3.162,-0.0109,0.2441,0.3711,0.144,-0.551,-9.712,0.000297,-9.9e-05,-0.001259
7.372284889221191,-96.574,0.967,3.164,-0.0121,0.2415,0.3725,0.205,-0.565,-9.691,-0.000883,0.000194,-0.000479
7.507113933563232,-96.575,0.967,3.163,-0.0121,0.2388,0.3726,0.223,-0.543,-9.708,-0.001019,-4.9e-05,0.000536
7.692870855331421,-96.566,0.969,3.163,-0.0144,0.2468,0.3709,0.173,-0.522,-9.753,0.000647,2.7e-05,0.000713
7.842195987701416,-96.57,0.971,3.161,-0.012,0.2442,0.371,0.114,-0.502,-9.707,-0.000925,-0.001004,0.000984
7.982383966445923,-96.569,0.969,3.162,-0.0132,0.2468,0.3695,0.153,-0.533,-9.707,-0.001241,-0.000541,0.000161
8.09260606765747,-96.569,0.97,3.161,-0.0109,0.2441,0.3667,0.117,-0.518,-9.719,-0.000226,0.000227,0.00075
8.225564956665039,-96.57,0.968,3.155,-0.0108,0.2521,0.3666,0.118,-0.541,-9.667,-0.000444,-0.001257,0.000139
8.415524005889893,-96.572,0.971,3.154,-0.0133,0.2415,0.3667,0.195,-0.535,-9.702,-0.001253,-0.000316,-0.000351
8.556695938110352,-96.576,0.972,3.155,-0.0121,0.2441,0.3667,0.157,-0.539,-9.687,-0.000165,-0.000375,0.000786
8.696703910827637,-96.58,0.973,3.154,-0.0133,0.2428,0.3696,0.166,-0.524,-9.672,-0.000756,-0.000194,-0.000834
8.798891067504883,-96.584,0.976,3.154,-0.0121,0.2428,0.3696,0.185,-0.508,-9.706,0.000385,0.000154,0.000436
8.93229603767395,-96.583,0.976,3.154,-0.0107,0.2482,0.374,0.169,-0.537,-9.72,0.000972,0.000325,-0.000326
9.072464942932129,-96.585,0.978,3.154,-0.0134,0.2415,0.3652,0.117,-0.504,-9.737,-0.001165,-0.000257,0.000182
9.216186046600342,-96.588,0.977,3.153,-0.0133,0.2428,0.3696,0.101,-0.507,-9.679,0.000819,0.000736,0.000484
9.357187032699585,-96.59,0.976,3.156,-0.0122,0.2401,0.3667,0.143,-0.539,-9.691,0.000948,-0.000108,0.001847
9.496309041976929,-96.593,0.978,3.156,-0.0108,0.2455,0.374,0.139,-0.544,-9.692,-0.000512,-0.000566,0.000299
9.632224082946777,-96.593,0.982,3.143,-0.0144,0.2442,0.3724,0.162,-0.595,-9.656,-0.007475,0.004074,-0.002273
9.768877983093262,-96.633,0.892,3.134,-0.012,0.2455,0.3696,0.021,-0.304,-9.811,0.005674,-0.004997,-0.001902
9.957778930664062,-96.7,0.856,3.024,-0.0145,0.2402,0.371,0.027,-0.276,-9.755,-0.0188,0.029198,-0.000305
10.061100959777832,-96.72,0.873,3.003,-0.0132,0.2415,0.3725,0.046,-0.504,-9.683,-0.022213,-0.016281,-0.008239
10.216949939727783,-96.76,0.928,3.008,-0.0133,0.2455,0.3651,0.22,-0.482,-9.74,0.003712,0.005287,-0.004255
10.32636284828186,-96.759,0.969,3.008,-0.0132,0.2402,0.3754,0.12,-0.402,-9.717,-0.009125,0.001108,0.009626
10.459115028381348,-97.113,0.893,2.996,-0.0156,0.2402,0.3738,-0.717,-0.078,-10.513,-0.04059,-0.038741,-0.163592
10.595069885253906,-98.941,0.422,3.114,-0.012,0.2455,0.3696,0.282,-0.678,-9.593,-0.021422,-0.02977,-0.048198
10.730390071868896,-98.8,0.561,2.984,-0.0192,0.2429,0.3722,0.02,-0.569,-9.834,-0.01482,-0.011386,-0.008217
10.9181649684906,-98.803,0.588,2.866,-0.0168,0.2442,0.3693,0.219,-0.628,-9.679,-0.01012,0.00313,-0.013128
11.109685897827148,-98.814,0.681,2.883,-0.0215,0.2416,0.3735,-1.161,-0.145,-7.854,-0.012031,0.057475,-0.014769
11.25146198272705,-99.518,0.748,2.396,-0.0206,0.2349,0.3664,-0.336,-0.292,-9.513,-0.141966,0.045274,0.045556
11.356014013290405,-99.503,0.821,2.211,-0.024,0.2337,0.3779,0.718,-0.336,-9.921,0.002179,0.013106,-0.013321
11.492806911468506,-99.594,0.649,2.202,-0.0229,0.2349,0.3707,0.037,-0.3,-9.675,0.000255,-0.017269,-0.00953
11.633625984191895,-99.575,0.59,2.35,-0.0216,0.2376,0.3736,0.17,-0.504,-9.643,0.017028,-0.00473,-0.006186
11.777299880981445,-99.522,0.427,2.36,-0.0168,0.2389,0.3738,0.198,-0.403,-9.761,0.004141,-0.050944,0.007755
11.88248896598816,-98.971,-0.995,2.132,-0.0075,0.2335,0.3729,-0.235,-0.364,-9.602,-0.098853,-0.359575,0.148219
12.018605947494507,-98.55,-4.827,1.457,0.0232,0.2278,0.3746,-0.833,-0.235,-9.646,0.012064,-0.616348,-0.025007
12.155250072479248,-97.898,-9.683,1.285,0.0599,0.2287,0.3706,-1.73,-0.178,-9.597,-0.085587,-0.502888,0.040668
12.291069030761719,-97.985,-14.33,0.796,0.0978,0.2295,0.3652,-2.104,-0.216,-9.472,-0.052142,-0.745646,-0.038746
12.396408081054688,-98.075,-18.649,0.565,0.1249,0.2279,0.3608,-2.946,-0.143,-9.19,-0.065636,-0.781248,0.037021
12.532420873641968,-97.997,-25.592,0.162,0.1832,0.2318,0.345,-4.15,-0.185,-8.664,-0.031146,-0.784858,-0.025858
12.666780948638916,-98.041,-30.601,0.009,0.2158,0.2408,0.3316,-5.0,-0.012,-8.335,0.003056,-0.622565,-0.036905
12.76727294921875,-98.572,-34.303,0.413,0.2385,0.2364,0.3165,-5.573,-0.016,-7.987,0.035346,-0.638234,-0.128526
12.901015996932983,-99.688,-39.395,1.238,0.2678,0.242,0.2943,-6.208,-0.176,-7.441,0.028737,-0.508923,-0.058817
13.035537004470825,-100.053,-42.213,1.601,0.2872,0.2459,0.2863,-6.445,-0.323,-7.19,0.001278,-0.347717,-0.000289
13.17255687713623,-100.207,-45.857,1.636,0.3063,0.2455,0.2648,-7.144,-0.132,-6.734,-0.000866,-0.445197,-0.014973
13.315624952316284,-100.37,-48.186,1.415,0.3196,0.2494,0.252,-7.046,-0.157,-6.585,-0.087449,-0.395717,0.031177
13.449212074279785,-100.655,-51.892,0.677,0.3337,0.2395,0.2364,-7.95,0.058,-5.968,-0.084153,-0.311934,-0.03899
13.635799884796143,-101.588,-53.945,1.078,0.347,0.2434,0.2235,-7.968,-0.095,-5.662,-0.004184,-0.064512,-0.026789
13.742236852645874,-101.695,-54.008,1.148,0.3432,0.2407,0.2174,-7.928,-0.139,-5.72,-0.004505,0.001531,-0.003405
13.849478960037231,-101.723,-53.994,1.164,0.3433,0.2407,0.2264,-7.957,-0.111,-5.722,-0.00026,0.004935,-0.001046
13.986909866333008,-101.718,-54.0,1.182,0.3468,0.2379,0.2191,-7.962,-0.096,-5.677,0.006375,0.004502,0.001388
14.17573094367981,-101.742,-53.978,1.249,0.3421,0.2462,0.2203,-7.91,-0.087,-5.742,-0.002868,0.000482,-0.001993
14.317323923110962,-101.757,-53.998,1.283,0.3422,0.2462,0.2247,-7.933,-0.096,-5.684,0.005602,-0.001246,-0.001117
14.449151992797852,-101.778,-54.001,1.336,0.341,0.2435,0.2262,-7.946,-0.128,-5.692,0.003391,0.002928,-0.000862
14.583860874176025,-101.805,-54.006,1.36,0.347,0.2434,0.222,-8.044,-0.1,-5.622,0.000529,0.002467,-0.002216
14.72151803970337,-101.812,-54.007,1.382,0.3421,0.2407,0.2233,-7.995,-0.088,-5.666,0.002119,0.000894,-0.00205
14.859313011169434,-101.838,-54.034,1.409,0.341,0.2475,0.2202,-7.955,-0.12,-5.669,0.001182,-0.001674,-0.001273
14.932411909103394,-101.84,-54.038,1.41,0.3446,0.2461,0.2219,-7.933,-0.108,-5.673,0.00042,1.2e-05,-0.002646
15.035717964172363,-101.843,-54.04,1.418,0.3446,0.2434,0.2234,-7.86,-0.158,-5.704,0.002609,0.001314,0.000503
15.17015290260315,-101.847,-54.061,1.426,0.3447,0.2475,0.2249,-7.866,-0.137,-5.718,0.000715,-0.000756,-0.001112
15.306289911270142,-101.848,-54.078,1.445,0.3445,0.2407,0.222,-7.886,-0.122,-5.724,-0.000125,0.001228,0.001283
15.40854287147522,-101.851,-54.073,1.445,0.3422,0.2462,0.2218,-7.923,-0.163,-5.646,-0.000144,0.003502,-0.006276
15.51683497428894,-101.857,-54.078,1.449,0.3433,0.2394,0.2279,-7.847,-0.171,-5.717,0.004848,0.001618,0.002546
15.654885053634644,-101.856,-54.062,1.436,0.3434,0.2448,0.2218,-7.898,-0.172,-5.667,-0.002276,0.000968,-0.000808
15.76102900505066,-101.885,-54.003,1.443,0.3396,0.2407,0.2202,-7.918,-0.147,-5.651,-0.007206,0.026323,-0.011823
15.901424884796143,-102.042,-53.573,1.582,0.3386,0.2435,0.2291,-7.821,-0.181,-5.777,0.000766,0.069716,-0.018394
16.00727891921997,-102.85,-52.453,2.369,0.3327,0.2477,0.2347,-7.798,-0.344,-5.739,0.084455,0.503279,-0.27247
16.111297845840454,-104.125,-48.648,4.245,0.3111,0.2563,0.2484,-7.079,-0.781,-6.304,0.192239,0.760533,-0.093771
16.221276998519897,-103.171,-44.5,4.39,0.2897,0.2662,0.2666,-6.868,-0.551,-6.859,0.118765,0.731251,0.10432
16.3751380443573,-100.514,-35.656,3.442,0.2428,0.2548,0.3123,-5.692,-0.523,-7.74,0.040863,1.087644,0.255873
16.477293014526367,-98.657,-29.411,2.713,0.2053,0.2526,0.3299,-4.708,-0.268,-8.556,0.055872,1.022301,0.154122
16.67382502555847,-97.249,-16.809,3.115,0.1254,0.2593,0.3685,-3.024,-0.489,-9.285,0.009208,1.246051,0.238375
16.779331922531128,-95.738,-9.094,2.828,0.073,0.249,0.384,-1.403,-0.53,-9.393,0.006372,1.408016,0.135198
16.848299026489258,-95.239,-2.984,2.962,0.0243,0.2496,0.3935,-0.625,-0.271,-9.641,0.110173,1.427674,-0.08155
16.98251700401306,-95.436,6.173,3.845,-0.0451,0.2528,0.3942,1.131,-0.643,-9.586,0.136642,1.094672,-0.090516
17.116703987121582,-95.43,13.721,4.275,-0.1078,0.2534,0.3774,2.266,-0.781,-9.196,-0.033786,1.077909,-0.084748
17.251317024230957,-94.949,22.528,3.448,-0.1747,0.2453,0.3578,3.812,-0.433,-8.917,-0.11369,0.986704,-0.052225
17.387908935546875,-94.986,28.937,2.874,-0.223,0.2347,0.3449,4.926,-0.383,-8.533,-0.020961,0.764581,-0.021615
17.532408952713013,-94.495,34.472,3.365,-0.2577,0.2322,0.325,5.738,-0.58,-7.883,-0.00012,0.634722,0.065788
17.71790385246277,-93.431,39.951,3.759,-0.2925,0.231,0.2991,6.426,-0.417,-7.557,0.016225,0.361356,0.027061
17.908797025680542,-93.587,42.404,4.152,-0.3109,0.2392,0.2827,6.688,-0.502,-7.146,0.051788,0.221807,-0.035054
18.046489000320435,-93.474,44.068,4.683,-0.3173,0.2364,0.2673,6.876,-0.594,-6.878,0.06724,0.251241,0.033245
18.182446002960205,-92.818,46.163,5.95,-0.3309,0.2393,0.259,7.195,-0.699,-6.741,0.056305,0.183845,0.023852
18.370571851730347,-92.521,47.079,6.282,-0.3347,0.2379,0.2513,7.008,-0.677,-6.475,0.015443,0.144496,-0.008312
18.48182487487793,-92.745,48.441,6.489,-0.3398,0.2392,0.2389,7.374,-0.717,-6.401,0.052144,0.167043,-0.057272
18.618062019348145,-93.204,49.881,6.619,-0.3486,0.2392,0.2278,7.205,-0.516,-6.273,0.095751,0.283878,-0.071692
18.72127389907837,-93.543,51.399,6.807,-0.3585,0.2393,0.2213,7.805,-0.71,-5.982,0.05896,0.204261,-0.051123
18.827992916107178,-93.775,52.209,6.82,-0.3612,0.2365,0.2106,7.745,-0.652,-5.909,0.006924,0.031694,-0.018814
18.938973903656006,-93.818,52.266,6.808,-0.3624,0.2365,0.212,7.717,-0.63,-5.901,0.004429,-0.007057,-0.001553
19.07549500465393,-93.767,52.281,6.884,-0.361,0.2434,0.212,7.729,-0.684,-5.878,0.004587,0.005257,0.005365
19.21622896194458,-93.745,52.298,6.904,-0.3646,0.2476,0.2148,7.7,-0.685,-5.883,-0.000309,0.002398,0.005583
19.40407705307007,-93.748,52.314,6.91,-0.3623,0.2393,0.215,7.87,-0.731,-5.833,-0.000433,-0.003178,-0.002459
19.592323064804077,-93.77,52.297,6.885,-0.3623,0.2366,0.2181,7.754,-0.66,-5.886,0.004371,-0.006409,-0.000576
19.78550100326538,-93.949,52.048,6.715,-0.3635,0.2393,0.2135,7.804,-0.684,-5.911,-0.001414,-0.059567,-0.024108
19.925647974014282,-95.31,50.863,5.58,-0.3585,0.2366,0.2228,7.752,-0.628,-6.102,-0.005008,-0.208872,-0.12458
20.035529851913452,-96.169,49.272,4.727,-0.3547,0.238,0.2321,7.958,-0.668,-6.569,-0.081571,-0.500094,-0.006499
20.136313915252686,-96.237,45.439,3.823,-0.3323,0.2296,0.2606,6.748,-0.397,-6.531,-0.207841,-0.683802,-0.009387
20.270166873931885,-96.791,41.037,2.395,-0.3074,0.224,0.2892,6.462,-0.151,-7.378,-0.018729,-0.586141,0.018574
20.408891916275024,-97.069,35.905,2.575,-0.276,0.2335,0.3164,5.943,-0.445,-7.881,0.006041,-0.69518,-0.023837
20.511225938796997,-97.706,31.592,2.102,-0.2513,0.2306,0.3298,5.201,-0.317,-8.166,-0.044122,-0.757384,-0.090164
20.650043964385986,-98.428,25.775,1.202,-0.2127,0.2317,0.359,4.365,-0.198,-8.777,-0.085937,-0.658501,-0.02341
20.80437707901001,-98.124,19.356,0.594,-0.1691,0.2298,0.38,3.401,-0.161,-9.198,-0.09413,-0.777178,0.12377
20.907264947891235,-97.597,15.121,0.439,-0.1343,0.2308,0.3939,2.683,0.088,-9.497,0.035094,-0.687897,0.045474
21.04440402984619,-97.513,9.635,1.862,-0.0885,0.2387,0.3946,1.788,-0.335,-9.503,0.32848,-0.873503,0.037516
21.177708864212036,-97.488,5.274,2.494,-0.0501,0.2521,0.3948,0.591,-0.374,-9.477,-0.131019,-0.081458,0.101496
21.368314027786255,-97.295,5.22,2.36,-0.0549,0.2536,0.4006,0.901,-0.324,-9.749,-0.017395,-0.001733,0.017422
21.475444078445435,-97.261,5.195,2.327,-0.0538,0.2466,0.3992,0.831,-0.367,-9.679,-0.001603,0.00882,0.008835
21.575824975967407,-97.234,5.212,2.281,-0.0562,0.2508,0.4006,0.895,-0.374,-9.655,-0.01925,0.000535,0.007667
21.709704875946045,-96.976,5.124,2.098,-0.055,0.248,0.4007,1.031,-0.461,-9.608,-0.038851,-0.013967,0.066092
21.84849786758423,-95.424,5.116,1.107,-0.049,0.2383,0.4011,0.915,-0.189,-9.686,-0.224321,0.017294,0.308082
21.976749897003174,-94.63,5.57,0.501,-0.0478,0.2327,0.4089,3.369,-2.21,-12.311,0.211847,0.050571,-0.046758
22.116747856140137,-96.796,6.229,1.187,-0.0576,0.2411,0.4007,1.382,-0.397,-9.614,0.14397,0.117696,-0.583747
22.257283926010132,-99.17,6.764,1.399,-0.0724,0.2454,0.3953,1.357,-0.34,-9.542,0.044815,0.102906,-0.194126
22.442868947982788,-99.205,7.622,1.346,-0.0799,0.2468,0.3842,1.642,-0.349,-9.844,0.028643,0.050874,0.118511
22.582429885864258,-99.325,6.954,2.455,-0.0748,0.2537,0.3859,0.902,-0.36,-9.737,0.225742,-0.133414,-0.215568
22.71831488609314,-101.054,6.784,3.61,-0.0808,0.2649,0.3854,1.376,-0.681,-9.483,0.114434,0.09446,-0.327552
22.90406584739685,-102.548,6.483,4.51,-0.0819,0.2746,0.3806,1.352,-0.674,-9.445,0.094914,-0.135663,-0.054857
23.040848970413208,-103.053,5.564,5.125,-0.0795,0.2731,0.3778,0.985,-0.642,-9.334,0.065966,-0.081434,-0.035778
23.142613887786865,-103.198,5.336,5.442,-0.0757,0.2772,0.3764,0.847,-1.4,-9.406,0.027976,-0.013002,0.027605
23.27535605430603,-102.048,4.93,5.967,-0.0683,0.2841,0.3721,0.956,-1.365,-9.609,0.055932,0.026775,-0.0058
23.463955879211426,-102.019,5.036,6.076,-0.0744,0.2869,0.3717,0.742,-1.004,-9.612,0.002087,0.002856,0.003914
23.59964895248413,-102.021,5.054,6.047,-0.0707,0.2855,0.375,0.688,-0.998,-9.618,-0.002829,0.003452,-0.000981
23.734528064727783,-101.952,5.062,6.288,-0.0694,0.2827,0.3781,0.776,-0.837,-9.697,0.096522,-0.003012,0.010187
23.876060962677002,-101.776,4.926,8.36,-0.0716,0.3063,0.3639,0.717,-1.257,-9.574,0.400392,-0.023076,0.030381
24.009644031524658,-101.555,4.825,11.489,-0.0679,0.3296,0.3395,0.986,-1.941,-9.51,0.451965,-0.012605,0.055938
24.1453800201416,-101.013,4.028,17.443,-0.0505,0.3777,0.3056,0.352,-2.82,-8.911,1.039705,-0.127136,0.11139
24.283252000808716,-100.682,3.179,25.557,-0.042,0.421,0.2468,0.47,-4.254,-8.598,0.896992,-0.020634,0.065104
24.388622045516968,-100.331,3.114,30.246,-0.0395,0.4441,0.2151,0.515,-4.91,-8.271,0.742011,0.033074,0.076818
24.524813890457153,-99.677,2.785,36.617,-0.0308,0.4565,0.1711,0.516,-5.778,-7.739,0.780127,0.009031,0.106982
24.71675992012024,-99.226,2.036,43.31,-0.0264,0.4846,0.12,0.386,-6.685,-7.059,0.601387,-0.057601,0.068228
24.856157064437866,-99.241,1.101,48.607,-0.0177,0.4945,0.0778,0.243,-7.411,-6.308,0.611289,-0.088215,0.066756
24.96868896484375,-99.391,0.546,51.871,-0.0106,0.4879,0.0588,-0.32,-7.501,-5.919,0.514388,-0.038698,0.026051
25.106826066970825,-99.524,0.105,55.859,-0.0089,0.4889,0.0262,-0.063,-8.108,-5.366,0.444033,-0.041575,0.014819
25.24151301383972,-99.638,-0.052,58.991,-0.0116,0.4875,-0.0053,-0.143,-8.309,-4.951,0.428677,-0.027737,0.001392
25.351294994354248,-99.682,-0.103,61.917,-0.0097,0.4898,-0.0311,0.054,-8.734,-4.424,0.375686,-0.001559,-0.002611
25.5401029586792,-99.722,-0.24,64.461,-0.008,0.4809,-0.0554,-0.043,-8.838,-4.142,0.194003,-0.009369,0.010872
25.674952030181885,-99.787,-0.382,65.88,-0.007,0.4808,-0.0649,-0.054,-9.119,-3.692,0.049175,-0.007931,0.010365
25.808389902114868,-99.789,-0.42,65.875,-0.0071,0.4783,-0.0635,-0.099,-8.887,-3.943,-0.001769,-0.003842,0.001382
25.999032020568848,-99.771,-0.414,65.85,-0.006,0.4795,-0.0689,-0.114,-8.912,-3.934,-0.016691,0.0014,-0.003297
26.13502287864685,-99.763,-0.39,65.726,-0.0069,0.4834,-0.0581,-0.102,-8.903,-3.932,-0.020271,-3.4e-05,-0.003281
26.23968195915222,-99.749,-0.366,65.606,-0.0058,0.4833,-0.0621,-0.056,-8.918,-3.936,-0.033444,0.004591,-0.004487
26.37170696258545,-99.747,-0.295,65.26,-0.0068,0.4858,-0.0581,-0.119,-9.007,-3.846,-0.067838,0.009447,-0.001152
26.511127948760986,-99.74,-0.227,64.392,-0.0078,0.4847,-0.0473,-0.18,-9.159,-3.719,-0.196723,-0.005461,-0.014124
26.64824604988098,-99.701,-0.055,61.432,-0.0129,0.4874,-0.019,-0.07,-8.591,-4.569,-0.372027,0.004349,-0.030818
26.78188395500183,-99.776,0.098,56.549,-0.0111,0.4865,0.0247,-0.262,-8.236,-5.019,-1.021826,-0.003606,-0.009304
26.919128894805908,-100.128,0.696,48.589,-0.019,0.4833,0.0939,0.33,-7.482,-6.118,-1.271626,0.011005,-0.135325
27.027493953704834,-100.669,1.089,38.617,-0.0272,0.4553,0.1757,0.159,-6.106,-7.306,-1.468296,-0.023242,-0.09688
27.13175106048584,-101.259,1.247,29.595,-0.0308,0.4209,0.2486,0.339,-4.735,-8.308,-1.626317,0.006155,-0.064707
27.267292976379395,-101.624,1.411,18.867,-0.0331,0.3594,0.3187,0.301,-2.913,-9.28,-1.308759,-0.029488,-0.077548
27.40282893180847,-102.436,1.365,9.884,-0.0371,0.3059,0.3644,0.529,-1.733,-9.459,-0.909526,0.015123,-0.070764
27.5083110332489,-102.483,1.772,4.61,-0.0408,0.2664,0.3934,0.498,-0.743,-9.768,-0.891328,0.091195,-0.011838
27.69981098175049,-102.231,2.691,-4.739,-0.0462,0.1922,0.4201,0.478,0.872,-9.759,-0.758936,0.074698,0.031305
27.836822032928467,-101.943,3.267,-9.581,-0.0476,0.151,0.4403,0.608,1.737,-9.553,-0.614102,0.064573,0.060981
27.97235608100891,-101.915,3.715,-13.666,-0.0516,0.1138,0.4408,0.662,2.392,-9.435,-0.391917,0.028461,-0.030112
28.158724069595337,-102.454,3.821,-17.708,-0.0565,0.0865,0.4464,0.606,2.989,-9.147,-0.401909,0.015,-0.068941
28.29641890525818,-102.809,3.874,-20.375,-0.0569,0.0642,0.4495,0.601,3.45,-9.175,-0.318641,0.024086,-0.03028
28.39969491958618,-103.022,3.947,-22.404,-0.0617,0.0443,0.4496,0.588,3.729,-8.656,-0.298282,0.011464,-0.030441
28.509079933166504,-103.265,4.031,-24.413,-0.0608,0.0319,0.4471,0.644,4.075,-8.829,-0.342906,0.028013,-0.007495
28.643972873687744,-103.431,4.168,-26.259,-0.0601,0.0133,0.4502,0.716,4.265,-8.564,-0.243019,0.021958,-0.018517
28.78301692008972,-103.7,4.267,-28.65,-0.0627,-0.0064,0.4518,0.715,4.88,-8.633,-0.129137,0.007926,-0.022921
28.927204847335815,-103.964,4.365,-30.078,-0.0685,-0.015,0.4476,0.733,4.941,-8.302,-0.283116,0.020315,0.020597
29.116183042526245,-104.089,4.467,-31.048,-0.0677,-0.0275,0.4438,0.839,4.974,-8.305,-0.048396,0.000479,-0.002132
29.24965786933899,-104.018,4.74,-33.13,-0.0679,-0.0411,0.4467,0.579,5.771,-8.432,-0.09263,0.013178,0.02619
29.43529200553894,-104.165,4.743,-33.111,-0.068,-0.0436,0.4454,0.91,5.334,-8.088,0.014023,-0.000573,-0.003495
29.577924013137817,-104.249,4.746,-32.968,-0.0668,-0.0387,0.4413,0.881,5.351,-8.12,0.014857,-0.005167,0.000742
29.718682050704956,-104.308,4.741,-32.884,-0.0734,-0.0411,0.4465,0.871,5.326,-8.104,0.006666,-0.001172,0.001536
29.822589874267578,-104.343,4.741,-32.82,-0.069,-0.0411,0.4453,0.883,5.308,-8.122,0.007182,-0.001166,0.004139
29.958920001983643,-104.381,4.748,-32.779,-0.0701,-0.0411,0.4466,0.878,5.305,-8.118,0.006734,0.001228,0.000517
30.065032958984375,-104.403,4.744,-32.729,-0.0679,-0.0399,0.444,0.929,5.309,-8.162,0.016295,-0.004497,0.001798
30.20083785057068,-104.384,4.784,-32.08,-0.0711,-0.0337,0.4437,0.939,5.275,-8.22,0.129008,-0.003823,0.015816
30.306194067001343,-104.251,4.803,-31.228,-0.0687,-0.025,0.4451,0.919,5.18,-8.345,0.164701,-0.01473,0.021721
30.409406900405884,-103.975,4.729,-29.854,-0.0674,-0.0163,0.4463,0.752,4.841,-8.387,0.298224,-0.055102,0.062603
30.54440188407898,-102.819,5.241,-25.931,-0.0679,0.0136,0.4499,0.703,4.443,-8.588,0.646572,-0.006488,0.119192
30.68183708190918,-102.247,5.133,-19.63,-0.0657,0.0732,0.449,0.879,3.557,-9.065,0.944538,-0.089941,-0.008693
30.784018993377686,-102.01,4.713,-14.209,-0.0604,0.1154,0.4512,0.807,2.481,-9.571,0.986879,-0.081319,0.038567
30.887465953826904,-101.654,4.232,-7.83,-0.0565,0.1678,0.4406,0.849,1.477,-9.388,1.187282,-0.104034,0.041096
31.02430295944214,-100.96,3.56,2.06,-0.0477,0.2471,0.4098,0.387,-0.513,-8.978,0.972111,-0.042816,0.081993
31.159420013427734,-100.645,3.471,4.312,-0.0464,0.2669,0.3986,0.571,-0.808,-9.623,-0.052236,-0.004259,-0.008346
31.267091035842896,-100.675,3.472,4.105,-0.0464,0.2669,0.4,0.47,-0.628,-9.655,-0.007253,0.005166,0.001918
31.461600065231323,-100.926,3.423,4.066,-0.0474,0.2694,0.3985,0.369,-0.606,-9.635,-0.001117,-0.021126,-0.124924
31.62119698524475,-106.422,2.189,4.739,-0.0563,0.2732,0.3953,0.546,-0.715,-9.592,0.258218,-0.384439,-1.108747
31.758147954940796,-114.248,0.603,5.605,-0.0729,0.2758,0.3876,-0.08,-0.94,-9.541,0.057416,-0.088434,-0.780451
31.90016198158264,-121.578,0.668,5.993,-0.0963,0.2706,0.3862,0.089,-1.029,-9.613,0.032128,-0.133132,-0.897667
32.03609895706177,-127.463,0.332,5.785,-0.1141,0.2645,0.3854,0.235,-0.972,-9.751,-0.033952,-0.133214,-0.739395
32.14324903488159,-131.487,-0.056,5.598,-0.1209,0.2547,0.3866,0.604,-1.36,-9.485,-0.034497,-0.153673,-0.64359
32.28275203704834,-137.261,-0.577,5.01,-0.1319,0.2387,0.3848,-0.068,-0.861,-9.665,-0.102545,-0.076139,-0.655638
32.387409925460815,-141.184,-0.478,4.59,-0.1441,0.2289,0.3911,0.226,-0.81,-9.717,-0.037037,-0.028093,-0.673863
32.4926118850708,-144.686,-0.279,4.55,-0.1553,0.2253,0.3879,0.063,-0.833,-9.677,-0.023231,0.010482,-0.550326
32.601266860961914,-148.327,0.296,4.174,-0.1712,0.2081,0.3847,0.274,-0.629,-9.69,-0.059327,0.069572,-0.458857
32.75908803939819,-151.429,0.928,3.842,-0.1834,0.2045,0.3827,0.288,-0.763,-9.694,0.003636,0.025878,-0.207949
32.86806392669678,-151.607,1.0,3.808,-0.1857,0.2008,0.3841,0.149,-0.571,-9.75,-0.006578,0.007555,0.017919
32.970547914505005,-151.542,1.043,3.84,-0.1858,0.1983,0.3814,0.326,-0.67,-9.652,0.001283,0.01205,0.019875
33.10626196861267,-151.4,1.122,3.892,-0.1835,0.1995,0.3815,0.22,-0.653,-9.712,0.004317,0.006206,0.017854
33.24167490005493,-151.293,1.09,3.887,-0.1812,0.2057,0.3788,0.144,-0.671,-9.674,0.006072,0.002579,0.01831
33.343294858932495,-151.147,1.096,3.878,-0.1824,0.2007,0.3842,0.248,-0.658,-9.717,-0.003521,-0.001417,0.024318
33.4486620426178,-150.845,1.118,3.864,-0.1824,0.2032,0.3801,0.346,-0.71,-9.636,-0.006373,0.021814,0.090145
33.58745193481445,-148.963,1.514,3.405,-0.1789,0.2106,0.3802,0.529,-0.789,-9.543,-0.197932,0.167431,0.49735
33.72568607330322,-143.132,3.016,1.793,-0.1723,0.2068,0.3833,0.713,-0.204,-9.852,-0.108086,0.135748,0.699035
33.91888093948364,-134.559,4.649,0.591,-0.1533,0.2129,0.3896,0.995,0.056,-9.831,-0.234563,0.253722,0.881665
34.02904796600342,-128.61,6.104,0.257,-0.1455,0.2153,0.3954,1.169,0.006,-9.715,-0.073494,0.18882,0.785116
34.16645407676697,-123.032,7.413,0.494,-0.1343,0.2239,0.3944,1.332,-0.005,-9.704,-0.059134,0.184024,0.72575
34.26807999610901,-118.115,8.216,1.074,-0.1264,0.2325,0.392,1.71,-0.14,-9.765,0.019906,0.115368,0.980191
34.373512983322144,-109.348,7.972,3.1,-0.0912,0.2556,0.3967,1.464,-0.454,-9.639,0.123705,-0.054084,1.358396
34.559892892837524,-96.499,7.041,4.974,-0.0492,0.2626,0.3975,1.101,-0.592,-9.606,0.013902,-0.010803,1.152356
34.6983060836792,-87.229,5.94,5.905,-0.0082,0.2671,0.3967,1.197,-0.589,-9.391,-0.084272,-0.067039,1.26429
34.83293390274048,-78.909,4.595,6.27,0.0294,0.263,0.4028,0.795,-0.909,-9.725,0.013635,-0.067303,0.912654
34.938464879989624,-74.459,3.59,6.555,0.0526,0.2621,0.3986,0.965,-1.118,-9.705,-0.040966,-0.073353,0.696448
35.07626986503601,-70.323,2.498,6.627,0.0713,0.2532,0.4051,0.058,-0.969,-9.583,0.004022,-0.045826,0.158129
35.21003603935242,-70.167,2.394,6.64,0.069,0.2519,0.4009,0.505,-1.053,-9.715,-9.1e-05,-0.003584,0.001327
35.31233501434326,-70.208,2.36,6.668,0.0679,0.252,0.4036,0.406,-1.202,-9.601,0.006942,0.002137,-0.017384
35.41733694076538,-70.262,2.372,6.664,0.0747,0.2593,0.4038,0.406,-1.146,-9.64,0.002987,-0.005317,-0.008537
35.5514760017395,-70.237,1.949,7.016,0.0759,0.2631,0.4025,2.84,-2.086,-10.87,0.232919,-0.407754,0.235309
35.694140911102295,-68.416,-1.773,9.455,0.1088,0.2687,0.3782,-0.323,-1.492,-9.533,0.411021,-0.513553,0.333741
35.83324098587036,-66.62,-6.977,13.787,0.1543,0.2967,0.3487,-0.964,-1.966,-9.615,0.664762,-0.71589,0.336483
35.968327045440674,-66.183,-12.918,19.415,0.1975,0.3346,0.3024,-2.169,-3.048,-8.827,0.841074,-0.695989,0.228431
36.110430002212524,-66.65,-18.359,26.019,0.2358,0.36,0.244,-3.274,-3.937,-8.061,0.616391,-0.505243,0.104822
36.24921894073486,-68.631,-22.349,32.145,0.2542,0.3761,0.1903,-3.835,-4.737,-7.575,0.636351,-0.503465,-0.050705
36.436200857162476,-72.788,-25.652,39.746,0.2647,0.3992,0.1239,-4.245,-5.653,-6.637,0.501207,-0.446981,-0.163664
36.53851795196533,-75.719,-26.487,43.903,0.262,0.4064,0.087,-4.389,-6.088,-6.195,0.530828,-0.429806,-0.356982
36.674192905426025,-81.594,-25.642,50.531,0.2375,0.425,0.0447,-4.387,-6.69,-5.501,0.443952,-0.362244,-0.651542
36.811517000198364,-87.403,-22.832,55.745,0.2004,0.45,0.0104,-4.077,-7.444,-4.712,0.31637,-0.35153,-0.779219
36.95075297355652,-94.22,-18.216,59.748,0.1445,0.469,-0.0103,-2.54,-8.311,-4.602,0.093539,-0.341539,-0.744692
37.08433699607849,-99.092,-14.657,61.422,0.105,0.4805,-0.0234,-2.576,-8.334,-4.292,-0.018759,-0.340987,-0.836315
37.187625885009766,-103.391,-11.212,62.13,0.0639,0.4857,-0.0207,-1.987,-8.386,-4.329,-0.069548,-0.364819,-0.899974
37.32734203338623,-110.846,-4.555,62.141,-0.008,0.4866,-0.0137,-0.499,-8.932,-4.275,-0.25786,-0.455784,-1.041144
37.52027487754822,-117.849,0.348,58.86,-0.0705,0.4818,0.0191,0.109,-8.191,-5.27,-0.376203,-0.318123,-0.621716
37.63393306732178,-122.494,3.323,56.213,-0.1072,0.4738,0.0468,0.519,-8.157,-5.303,-0.404772,-0.371773,-0.740105
37.77023887634277,-128.108,6.057,52.258,-0.144,0.4598,0.0786,-0.483,-7.541,-5.586,-0.618786,-0.343257,-0.916504
37.90634202957153,-136.306,9.486,42.943,-0.1912,0.4175,0.1482,1.47,-6.557,-6.878,-0.933529,-0.513534,-0.788424
38.02220892906189,-141.156,9.491,37.126,-0.2052,0.3923,0.1919,1.731,-5.966,-7.675,-0.699925,-0.547333,-0.487651
38.13896298408508,-146.452,8.047,31.032,-0.209,0.3609,0.2391,2.239,-6.019,-7.383,-0.924906,-0.67917,-0.467643
38.27661204338074,-152.009,4.972,20.618,-0.2015,0.3027,0.3085,0.923,-3.555,-8.929,-1.239541,-0.542706,-0.315151
38.410178899765015,-154.719,2.859,12.261,-0.1903,0.2517,0.354,0.354,-2.114,-9.246,-1.123179,-0.239713,-0.278801
38.54911398887634,-156.216,1.307,3.244,-0.1803,0.1823,0.3877,0.576,-0.852,-9.266,-1.363145,-0.198358,0.047988
38.68303203582764,-151.508,0.72,-9.141,-0.1579,0.1076,0.4139,0.381,1.522,-9.3,-1.524151,-0.050773,0.940579
38.78600001335144,-146.248,1.834,-16.659,-0.1521,0.0612,0.423,0.159,3.555,-9.647,-0.973602,-0.007064,0.795955
38.92076396942139,-142.68,2.982,-20.966,-0.1494,0.0331,0.4249,1.032,3.334,-8.784,-0.55639,-0.016923,0.453245
39.07461500167847,-137.118,5.227,-27.547,-0.1488,-0.0074,0.4249,0.865,4.668,-8.566,-0.615706,-0.039987,0.660217
39.18516993522644,-134.146,6.7,-29.959,-0.1491,-0.0196,0.4237,1.276,4.94,-8.387,-0.326573,-0.029938,0.505572
39.28951597213745,-131.171,8.079,-31.526,-0.1428,-0.0295,0.4189,1.483,5.072,-8.243,-0.379091,-0.076756,0.629967
39.424394845962524,-125.497,10.503,-33.576,-0.1531,-0.0367,0.4234,1.06,5.487,-8.274,-0.327162,-0.127943,0.669286
39.57121992111206,-120.472,12.465,-35.126,-0.1446,-0.0466,0.4213,-1.443,5.987,-10.182,-0.196412,-0.165703,0.645839
39.709881067276,-114.816,14.698,-35.44,-0.1435,-0.0429,0.42,5.346,5.964,-5.513,-0.190098,-0.123151,0.713804
39.848418951034546,-109.118,16.856,-34.119,-0.1437,-0.0433,0.4234,1.442,4.34,-9.934,0.263111,-0.185767,0.440592
39.984113931655884,-100.216,19.509,-31.967,-0.1377,-0.0286,0.4369,1.672,6.961,-7.47,0.109173,-0.174169,0.817489
40.12189602851868,-89.324,22.197,-27.638,-0.1291,-0.005,0.4427,3.673,4.593,-7.932,0.002264,-0.322316,1.390893
40.233020067214966,-81.141,23.678,-24.036,-0.1208,0.0208,0.4534,3.487,4.043,-8.246,0.126293,-0.359468,1.108944
40.4168119430542,-67.029,21.716,-14.812,-0.0734,0.0769,0.468,2.873,2.781,-8.831,0.556106,-0.873841,1.193184
40.52019190788269,-59.397,18.086,-8.958,-0.0225,0.1095,0.4673,1.501,2.313,-9.303,0.639358,-1.02571,1.066577
40.625571966171265,-52.201,11.506,-2.217,0.047,0.1524,0.4584,1.385,1.03,-9.295,0.880725,-1.156759,0.807809
40.766798973083496,-48.088,3.917,5.129,0.1219,0.203,0.4318,0.293,-0.414,-9.534,1.030476,-1.085333,0.411313
40.95862293243408,-49.058,-7.014,17.697,0.2114,0.2892,0.3514,-1.453,-2.852,-9.101,1.047458,-0.867481,-0.148133
41.10058403015137,-53.863,-12.682,27.433,0.2432,0.3462,0.2794,-2.085,-4.301,-8.294,0.863773,-0.748153,-0.251827
41.28415489196777,-60.131,-16.992,36.729,0.2578,0.3858,0.198,-2.731,-5.552,-7.432,0.643825,-0.630631,-0.297015
41.38811898231506,-64.513,-18.593,42.069,0.2565,0.4052,0.156,-2.881,-6.28,-6.647,0.668538,-0.652107,-0.456704
41.533161878585815,-71.973,-19.915,47.977,0.2424,0.4316,0.1007,-4.617,-5.943,-6.33,0.326982,-0.871434,-0.561928
41.636476039886475,-80.634,-19.424,53.912,0.2126,0.45,0.0519,-3.217,-7.612,-5.518,0.591426,-1.065326,-0.876453
41.77117204666138,-89.138,-18.417,59.367,0.1781,0.4669,0.0054,-3.098,-8.1,-4.471,0.248654,-0.87073,-0.794622
41.90849184989929,-101.644,-15.702,64.608,0.1126,0.4883,-0.0318,-1.355,-8.858,-4.443,0.108904,-1.134874,-0.962431
42.00992393493652,-109.433,-13.273,66.755,0.0623,0.4916,-0.0511,-1.818,-9.129,-3.931,-0.028972,-0.94353,-0.88493
42.11660099029541,-116.51,-10.746,67.381,0.0155,0.4921,-0.0495,-1.849,-8.812,-3.734,-0.196415,-0.9086,-0.970894
42.252086877822876,-125.196,-5.515,67.07,-0.054,0.4893,-0.0396,-1.232,-8.985,-3.429,-0.242187,-0.709219,-0.866914
42.39781594276428,-131.267,-0.75,65.374,-0.1059,0.4794,-0.0172,0.888,-9.643,-3.67,-0.337502,-0.391386,-0.566864
42.533604860305786,-136.262,1.319,60.906,-0.1335,0.469,0.0336,0.018,-8.521,-4.335,-0.822518,-0.404585,-0.697925
42.673457860946655,-140.863,3.861,54.869,-0.1663,0.4537,0.083,0.173,-7.833,-5.571,-0.907153,-0.310487,-0.587731
42.7848219871521,-144.825,5.997,46.961,-0.1865,0.4251,0.1464,1.961,-7.525,-6.162,-1.46507,-0.36204,-0.723263
42.91969585418701,-150.314,4.833,34.599,-0.1928,0.3804,0.2388,1.299,-5.486,-8.051,-1.832908,-0.888147,-0.25039
43.02574396133423,-155.749,-2.843,23.4,-0.1537,0.3209,0.3297,-0.726,-3.516,-9.073,-1.057897,-1.462981,-0.154646
43.15866303443909,-160.38,-9.921,18.388,-0.1082,0.2839,0.384,-1.281,-3.052,-9.124,-0.65747,-0.783256,-0.224135
43.31979990005493,-163.0,-15.546,12.823,-0.0707,0.2399,0.4199,-1.965,-2.228,-9.337,-0.636523,-0.53268,-0.041479
43.42500686645508,-163.375,-18.767,8.293,-0.0455,0.2066,0.4372,-2.813,-1.402,-9.219,-0.615765,-0.327044,0.130621
43.5304229259491,-162.303,-20.44,4.712,-0.0285,0.1822,0.4452,-3.028,-1.135,-8.941,-0.5952,-0.266565,0.285978
43.667399883270264,-159.382,-22.54,-0.665,-0.0031,0.1479,0.4564,-3.383,0.02,-9.22,-0.560538,-0.336583,0.435895
43.80502796173096,-156.729,-25.55,-4.181,0.0311,0.1232,0.4612,-4.336,0.955,-8.735,-0.126727,-0.321193,0.201238
43.908097982406616,-154.902,-27.379,-5.346,0.0484,0.1231,0.4621,-4.211,0.807,-8.716,-0.064476,-0.349522,0.290031
44.10164785385132,-146.322,-28.474,-9.843,0.0809,0.101,0.4617,-4.381,1.57,-8.297,0.008579,-0.004382,1.025022
44.28755307197571,-133.724,-24.803,-16.489,0.0881,0.0791,0.4625,-4.207,2.94,-8.355,-0.09202,0.215612,1.271709
44.47685384750366,-119.96,-15.685,-23.133,0.0622,0.0348,0.4703,-2.453,3.257,-8.286,-0.320726,0.514924,1.478926
44.61731505393982,-111.49,-7.067,-28.167,0.027,0.0017,0.4711,-1.379,4.544,-8.531,-0.503785,0.646239,1.44414
44.75400400161743,-105.815,2.235,-31.875,-0.0191,-0.0355,0.472,-0.053,5.395,-8.104,-0.312582,0.619298,0.851859
44.88689208030701,-103.115,9.376,-33.744,-0.0625,-0.0465,0.4617,1.909,5.364,-8.018,-0.311032,0.671771,0.862913
45.074182987213135,-99.33,22.537,-35.766,-0.1399,-0.0604,0.438,3.642,6.762,-7.349,0.112922,0.699328,0.598885
45.18264293670654,-99.342,27.532,-34.697,-0.1698,-0.046,0.4283,5.314,4.462,-6.156,0.173144,0.753897,0.634767
45.283621072769165,-98.786,33.073,-33.592,-0.2087,-0.0298,0.4074,5.765,3.631,-6.195,0.072704,0.952831,0.686905
45.42126202583313,-99.335,39.296,-32.635,-0.2422,-0.0125,0.3921,6.011,4.603,-6.52,0.432457,0.624391,0.165714
45.557196855545044,-101.344,43.589,-27.395,-0.2686,0.0424,0.3645,7.1,3.589,-6.017,1.030485,0.448632,0.161098
45.65966987609863,-100.722,46.877,-20.584,-0.2799,0.0982,0.3442,7.424,1.989,-5.757,1.093467,0.414705,0.339582
45.76600003242493,-99.353,49.132,-13.944,-0.2881,0.1396,0.3218,7.197,1.542,-6.086,0.929929,0.280687,0.193104
45.90274000167847,-99.232,49.93,-5.68,-0.2863,0.1895,0.3023,7.877,0.623,-5.843,0.997438,-0.046784,-0.038529
46.03788995742798,-99.786,48.894,1.421,-0.2787,0.2253,0.2788,7.884,-0.397,-6.239,1.064235,-0.211909,0.018548
46.13845705986023,-100.201,47.452,6.581,-0.2718,0.2508,0.2667,7.204,-1.255,-6.412,0.820989,-0.298359,-0.158575
46.27179288864136,-101.479,45.273,9.805,-0.2618,0.2702,0.2575,7.131,-1.212,-6.652,0.43664,-0.341511,-0.074116
46.40657186508179,-103.987,42.028,11.669,-0.2522,0.2862,0.2555,6.776,-1.554,-6.895,0.404125,-0.471634,-0.19863
46.54254198074341,-106.68,38.215,12.632,-0.2389,0.3007,0.2586,6.288,-1.835,-7.498,0.346435,-0.655487,-0.176762
46.68693494796753,-108.966,30.83,15.15,-0.2058,0.3163,0.2694,5.928,-1.927,-8.669,0.985569,-1.576801,0.464843
46.89268708229065,-109.66,12.757,20.749,-0.1045,0.3737,0.2952,1.792,-3.781,-7.715,-0.168098,-1.476138,0.363775
47.08827590942383,-107.883,1.061,14.425,-0.0206,0.3404,0.3571,0.098,-2.492,-9.487,-0.577169,-0.347763,0.393291
47.274210929870605,-104.718,-1.242,10.064,0.0044,0.3087,0.3976,0.045,-1.525,-9.393,-0.360109,-0.027011,0.346971
47.40886688232422,-102.065,-1.578,7.407,0.0162,0.294,0.4078,-0.324,-0.488,-9.572,-0.173448,0.051131,0.319152
47.599403858184814,-101.323,-1.152,7.061,0.0149,0.283,0.408,-0.08,-0.816,-9.886,-0.026217,0.026773,-0.005828
47.7078800201416,-101.41,-1.15,7.11,0.0117,0.2879,0.4104,-0.05,-1.279,-9.635,-0.008937,0.012156,-0.009227
47.841418981552124,-101.462,-1.06,7.132,0.0138,0.2867,0.4065,-0.174,-1.161,-9.654,0.007702,0.014696,-0.00634
47.9750030040741,-101.472,-0.94,7.226,0.0139,0.2891,0.4078,-0.024,-1.234,-9.657,0.008492,0.021193,0.003588
48.10791492462158,-101.476,-0.875,7.284,0.0117,0.2891,0.4077,-0.021,-1.243,-9.664,0.001356,0.014762,-0.001288
48.29260301589966,-101.461,-0.711,7.337,0.0107,0.2904,0.4089,-0.196,-1.127,-9.667,0.009727,0.015037,-0.005322
48.47799587249756,-101.487,-0.631,7.316,0.0095,0.2867,0.4103,-0.041,-1.23,-9.625,-0.005497,0.001428,-0.007822
48.58024001121521,-101.786,0.053,6.679,0.0053,0.2893,0.4154,-1.685,-1.355,-8.421,-0.510946,0.527444,-0.339083
48.71888995170593,-101.909,2.949,2.374,-0.0158,0.2493,0.431,0.309,0.829,-10.541,-0.042264,0.012194,0.04564
48.85776686668396,-102.016,2.725,2.025,-0.0169,0.2517,0.4269,0.469,-0.214,-9.767,-0.035153,-0.007415,-0.013507
48.999533891677856,-102.089,2.785,1.993,-0.0149,0.2456,0.4271,0.536,-0.258,-9.716,0.010185,0.006741,-0.006788
49.10285401344299,-102.108,2.829,2.074,-0.0158,0.2517,0.4269,0.583,-0.305,-9.729,0.011689,0.009342,0.000427
49.20526194572449,-102.129,2.848,2.133,-0.0191,0.2469,0.4309,0.47,-0.367,-9.659,0.00358,0.004033,-0.002797
49.34503507614136,-102.158,2.869,2.161,-0.0159,0.2481,0.4283,0.505,-0.336,-9.693,0.003695,0.004381,-0.003936
49.48285889625549,-102.174,2.901,2.183,-0.0158,0.253,0.4283,0.519,-0.354,-9.676,0.000451,0.00167,-0.002894
49.58813405036926,-102.18,2.923,2.186,-0.0169,0.2493,0.4296,0.536,-0.354,-9.712,0.005062,0.004181,0.000487
49.690263986587524,-102.186,2.946,2.184,-0.0169,0.2517,0.4256,0.486,-0.331,-9.696,0.000399,0.002649,-0.00119
49.82495403289795,-102.192,2.972,2.179,-0.0148,0.2493,0.4284,0.49,-0.307,-9.688,-0.000467,0.000282,-0.004127
49.95783996582031,-102.21,2.985,2.166,-0.017,0.2505,0.4269,0.472,-0.329,-9.72,-0.002271,0.001037,-0.003347
50.09083890914917,-102.225,3.003,2.153,-0.0213,0.2482,0.4307,0.512,-0.35,-9.717,-0.001596,0.002519,-0.00189
50.22620105743408,-102.24,3.026,2.134,-0.0158,0.2505,0.431,0.548,-0.398,-9.714,-0.004228,0.002346,-0.003134
50.36293601989746,-102.26,3.045,2.106,-0.0158,0.2493,0.4297,0.577,-0.365,-9.725,-0.001745,0.003014,-0.00356
50.46822905540466,-102.28,3.059,2.089,-0.017,0.2481,0.4269,0.532,-0.363,-9.699,-0.001467,0.002987,-0.0039
50.57124590873718,-102.298,3.072,2.074,-0.0202,0.2469,0.4308,0.496,-0.32,-9.697,-0.000388,0.001969,-0.003383
50.70658493041992,-102.314,3.084,2.047,-0.017,0.2481,0.4269,0.506,-0.329,-9.696,-0.001588,0.004618,-0.000377
50.81378793716431,-102.318,3.093,2.037,-0.0181,0.2469,0.4282,0.503,-0.326,-9.686,-0.003634,-0.000518,-0.002034
50.94853091239929,-102.348,3.107,2.0,-0.018,0.2506,0.4295,0.567,-0.335,-9.71,0.001247,-0.00189,-0.000163
51.05372500419617,-102.387,3.156,1.936,-0.0169,0.2505,0.4282,0.583,-0.251,-9.778,-0.014291,0.016552,-0.00292
51.19273591041565,-102.497,3.213,1.883,-0.0181,0.2481,0.4269,0.055,-0.26,-9.498,-0.00669,-0.020211,-0.015706
51.29996705055237,-102.546,3.168,1.802,-0.0181,0.2505,0.4255,0.248,-0.369,-9.631,0.028151,-0.014687,-0.005609
51.43476986885071,-102.585,3.245,1.741,-0.0192,0.2469,0.4282,-2.703,0.387,-8.692,-0.00232,-0.028427,-0.085267
51.54090905189514,-102.71,3.246,1.686,-0.0202,0.2469,0.4295,0.796,-0.337,-9.757,-0.004835,0.011279,0.005301
51.675801038742065,-102.933,3.34,1.616,-0.0225,0.2433,0.4267,0.899,-0.654,-9.7,-0.037515,0.038237,-0.039124
51.784050941467285,-102.892,3.315,1.636,-0.0224,0.2469,0.4294,0.973,-0.637,-9.719,-0.008378,-0.02332,0.015697
51.926454067230225,-102.961,3.224,1.701,-0.0192,0.2445,0.4309,0.337,-0.286,-9.689,0.002285,-0.005037,-0.012735
52.06758189201355,-102.991,3.192,1.704,-0.0203,0.2432,0.4282,0.415,-0.313,-9.711,0.002185,-0.001979,-0.005485
52.1780469417572,-103.005,3.188,1.72,-0.0202,0.2481,0.4308,0.887,-0.225,-9.714,-0.003725,0.000677,0.004905
52.278995990753174,-102.994,3.196,1.728,-0.0223,0.247,0.4347,0.507,-0.177,-9.766,-0.003394,-0.009332,0.007698
52.415327072143555,-102.989,3.19,1.744,-0.0213,0.2469,0.4281,0.529,-0.281,-9.699,0.006839,-0.004097,0.000621
52.55196785926819,-102.978,3.256,1.704,-0.0203,0.2481,0.4268,0.359,-0.215,-9.701,-0.021892,0.022997,-0.011653
52.65581488609314,-102.968,3.394,1.561,-0.0213,0.2481,0.4294,3.377,2.656,-10.606,0.042097,-0.039137,0.108797
52.84520888328552,-102.986,3.359,1.602,-0.0191,0.2506,0.4281,0.644,-0.039,-9.77,-0.004851,0.010005,0.026601
52.949888944625854,-102.977,3.288,1.625,-0.0182,0.242,0.4297,0.453,-0.144,-9.743,0.020254,-0.017531,-0.006893
53.05332088470459,-103.038,3.272,1.662,-0.0214,0.2432,0.4268,0.529,-0.434,-9.659,-0.017374,0.014778,-0.009341
53.19192385673523,-103.159,3.417,1.55,-0.0213,0.2469,0.4308,2.127,0.404,-10.426,-0.055136,0.02667,0.006976
53.293083906173706,-103.135,3.343,1.578,-0.0236,0.2445,0.428,0.691,-0.565,-9.614,-0.011663,-0.000574,-0.014858
53.42707896232605,-103.208,3.45,1.501,-0.0224,0.2482,0.4293,0.959,0.396,-9.961,0.03196,-0.009436,0.027138
53.53374195098877,-103.235,3.203,1.682,-0.0214,0.2445,0.4308,0.316,-0.189,-9.69,0.003933,-0.013068,-0.016063
53.66795086860657,-103.293,3.196,1.768,-0.0201,0.253,0.4307,0.472,-0.279,-9.748,0.013301,-0.000342,-0.007597
53.7754168510437,-103.346,3.159,1.815,-0.0202,0.2518,0.4267,0.538,-0.333,-9.733,0.00341,-0.012984,-0.013312
53.91009306907654,-103.39,3.155,1.82,-0.0191,0.2506,0.4281,0.505,-0.28,-9.676,0.002525,0.012394,0.001881
54.019691944122314,-103.393,3.176,1.837,-0.0203,0.2481,0.4268,0.553,-0.256,-9.695,0.004277,-0.00086,-0.004289
54.15529489517212,-103.413,3.176,1.856,-0.0224,0.2482,0.4293,0.607,-0.31,-9.719,0.003085,-0.000214,-0.003526
54.25909996032715,-103.424,3.175,1.863,-0.0212,0.2555,0.4266,0.615,-0.32,-9.717,0.002879,-0.000105,-0.002747
54.39936590194702,-103.436,3.173,1.872,-0.0234,0.2518,0.4292,0.503,-0.3,-9.708,0.00059,0.000334,-0.002447
54.59098505973816,-103.459,3.17,1.88,-0.0202,0.2506,0.4267,0.524,-0.303,-9.696,0.001426,-0.001181,-0.002717
54.72993803024292,-103.465,3.167,1.886,-0.0212,0.2542,0.428,0.554,-0.352,-9.674,0.000487,-0.000793,-0.002191
54.833701848983765,-103.47,3.166,1.889,-0.0223,0.2543,0.4292,0.535,-0.32,-9.679,0.001067,-0.000648,-0.001688
54.937116861343384,-103.474,3.166,1.891,-0.0224,0.2469,0.428,0.488,-0.309,-9.7,0.000405,0.000354,-0.003527
55.07286095619202,-103.481,3.166,1.891,-0.0223,0.2506,0.4293,0.491,-0.302,-9.689,-0.000242,5.5e-05,-0.002403
55.17693305015564,-103.491,3.161,1.894,-0.0213,0.2506,0.4254,0.468,-0.276,-9.733,-0.000206,0.000107,-0.002213
55.31384491920471,-103.495,3.162,1.894,-0.0213,0.2506,0.4294,0.481,-0.274,-9.715,4.2e-05,0.000576,-0.001124
55.468689918518066,-103.498,3.161,1.895,-0.0224,0.2458,0.4347,0.496,-0.33,-9.714,0.000992,-0.000535,-0.001767
55.605655908584595,-103.494,3.161,1.895,-0.0202,0.2493,0.4281,0.562,-0.329,-9.698,-0.000322,0.000589,-0.002204
55.74216890335083,-103.497,3.162,1.897,-0.0202,0.2481,0.4308,0.559,-0.338,-9.669,0.001069,0.000328,-0.001691
55.87813186645508,-103.501,3.162,1.9,-0.0214,0.2481,0.4254,0.59,-0.301,-9.774,0.000813,0.000259,-0.001834
56.01685190200806,-103.507,3.16,1.902,-0.0203,0.2481,0.4254,0.579,-0.317,-9.711,-0.000385,0.000131,-0.002337
56.15172290802002,-103.521,3.16,1.906,-0.0212,0.2555,0.4293,0.526,-0.312,-9.725,0.000927,-0.000115,-0.001802
56.252893924713135,-103.524,3.157,1.906,-0.0224,0.2457,0.4294,0.571,-0.351,-9.692,0.000779,-0.001288,-0.001834
56.38974094390869,-103.53,3.156,1.907,-0.0224,0.2493,0.424,0.594,-0.317,-9.68,-0.001822,0.001084,-0.001657
56.499948024749756,-103.531,3.155,1.906,-0.0213,0.2482,0.4321,0.584,-0.322,-9.724,-0.000324,-0.001305,-0.000979
56.63371801376343,-103.532,3.154,1.908,-0.0214,0.2457,0.4268,0.588,-0.351,-9.683,-0.000148,-0.000316,-0.001245
56.742058992385864,-103.531,3.154,1.909,-0.0225,0.2481,0.424,0.557,-0.35,-9.685,-2.3e-05,-0.000666,-0.001827
56.88391304016113,-103.542,3.156,1.91,-0.0224,0.2494,0.4293,0.577,-0.328,-9.699,0.000847,-0.000743,-0.001232
57.0703239440918,-103.545,3.157,1.909,-0.0223,0.2518,0.4279,0.473,-0.299,-9.672,-0.000339,0.000373,-0.00147
57.206007957458496,-103.545,3.158,1.911,-0.0224,0.2506,0.428,0.47,-0.327,-9.721,0.001422,0.000517,-0.001632
57.34385800361633,-103.543,3.157,1.915,-0.0201,0.253,0.4294,0.512,-0.33,-9.668,0.000653,0.000202,-0.000851
57.44923996925354,-103.548,3.158,1.918,-0.0224,0.2494,0.4293,0.493,-0.305,-9.757,0.000104,0.000486,-0.001414
57.58576798439026,-103.549,3.155,1.918,-0.0213,0.2518,0.4253,0.48,-0.312,-9.712,0.00097,0.000183,-0.001618
57.68719005584717,-103.555,3.155,1.919,-0.0213,0.253,0.4267,0.472,-0.315,-9.715,-6.4e-05,0.000663,-0.001456
57.820050954818726,-103.563,3.154,1.917,-0.0224,0.2518,0.4266,0.506,-0.283,-9.723,0.000426,-0.000214,-0.001725
57.957634925842285,-103.561,3.156,1.918,-0.0224,0.2506,0.4266,0.481,-0.332,-9.726,-0.000649,-0.000539,-0.001383
58.093371868133545,-103.566,3.155,1.919,-0.0202,0.2493,0.4268,0.495,-0.321,-9.714,-0.000744,0.000459,-0.001234
58.200429916381836,-103.567,3.154,1.92,-0.0212,0.2482,0.4347,0.473,-0.325,-9.691,-0.000264,6e-05,-0.001441
58.3345000743866,-103.571,3.155,1.921,-0.0191,0.2518,0.4295,0.48,-0.334,-9.688,-0.000314,-0.000473,-0.00091
58.469138860702515,-103.572,3.155,1.922,-0.0214,0.2493,0.4214,0.477,-0.298,-9.735,0.000322,0.001006,-0.000819
58.57423686981201,-103.575,3.155,1.924,-0.0213,0.2506,0.428,0.487,-0.328,-9.696,-0.000265,0.000831,-0.001343
58.768921852111816,-103.579,3.154,1.927,-0.0204,0.2456,0.4201,0.593,-0.347,-9.682,-4.1e-05,-1.3e-05,-0.00159
58.918704986572266,-103.578,3.156,1.926,-0.0224,0.2469,0.4294,0.564,-0.341,-9.701,-0.000413,0.000664,-0.001087
59.06768298149109,-103.575,3.156,1.926,-0.0246,0.2518,0.4238,0.538,-0.307,-9.713,-0.000363,-0.000442,-0.001366
59.17626690864563,-103.569,3.155,1.927,-0.0213,0.2481,0.4267,0.5,-0.306,-9.739,-0.000663,2.6e-05,-0.001273
59.31764006614685,-103.57,3.153,1.929,-0.0203,0.2505,0.4227,0.514,-0.326,-9.708,-0.000108,0.000689,-0.002173
59.50555086135864,-103.569,3.15,1.93,-0.0202,0.2518,0.4227,0.566,-0.358,-9.69,-0.000125,-0.000131,-0.001591
59.66241693496704,-103.565,3.151,1.931,-0.0213,0.2506,0.4294,0.559,-0.339,-9.706,-0.000254,0.000438,-0.001728
59.80341100692749,-103.566,3.15,1.932,-0.0213,0.253,0.4253,0.516,-0.324,-9.721,-0.000182,-0.0001,-0.001102
59.90670895576477,-103.561,3.15,1.933,-0.0225,0.2481,0.424,0.575,-0.344,-9.664,-0.000443,-0.000602,-0.000851
60.01168990135193,-103.559,3.15,1.933,-0.0235,0.2494,0.4279,0.568,-0.372,-9.682,-0.000288,0.001535,-0.000828
60.148386001586914,-103.554,3.153,1.935,-0.0191,0.2518,0.4281,0.575,-0.332,-9.709,0.000856,0.000792,-0.000809
60.25296497344971,-103.55,3.153,1.934,-0.0191,0.253,0.4228,0.563,-0.356,-9.687,0.000193,0.000681,-0.001043
60.388404846191406,-103.548,3.153,1.936,-0.0191,0.2518,0.4241,0.584,-0.36,-9.703,0.000397,0.000646,-0.001038
60.49351406097412,-103.545,3.154,1.937,-0.0191,0.253,0.4241,0.492,-0.326,-9.676,-0.000428,0.001142,-0.001581
60.627711057662964,-103.54,3.153,1.941,-0.0201,0.2555,0.428,0.545,-0.358,-9.699,-0.001603,-0.000487,-0.001663
60.73810696601868,-103.535,3.151,1.941,-0.0201,0.2518,0.4294,0.515,-0.326,-9.708,0.00109,-0.000354,-3.9e-05
60.87393403053284,-103.533,3.15,1.942,-0.0192,0.2493,0.4268,0.551,-0.331,-9.696,0.001387,0.000588,-0.001404
61.04074192047119,-103.526,3.152,1.943,-0.0192,0.2505,0.4241,0.594,-0.342,-9.74,0.000185,-0.000102,-0.00038
61.1776909828186,-103.516,3.153,1.942,-0.0181,0.2517,0.4228,0.538,-0.323,-9.689,6.7e-05,0.00053,-0.000203
61.31759786605835,-103.513,3.152,1.943,-0.0213,0.2482,0.4307,0.53,-0.325,-9.695,0.001305,0.000669,-0.000781
61.51742696762085,-103.508,3.15,1.944,-0.0192,0.2481,0.4242,0.562,-0.348,-9.693,0.000259,-1.6e-05,0.000423
61.6587278842926,-103.503,3.15,1.945,-0.0179,0.2554,0.4295,0.576,-0.352,-9.694,-0.000912,0.000477,-0.001413
61.793328046798706,-103.494,3.149,1.944,-0.0235,0.2518,0.4252,0.581,-0.352,-9.7,0.001125,0.000915,0.000375
61.900490045547485,-103.492,3.149,1.944,-0.0213,0.2506,0.428,0.595,-0.358,-9.737,0.001031,-0.000721,-0.00022
62.0411639213562,-103.486,3.146,1.945,-0.0202,0.2481,0.4281,0.57,-0.343,-9.701,0.000837,-0.000161,9.5e-05
62.17820906639099,-103.472,3.145,1.946,-0.0192,0.2481,0.4255,0.549,-0.333,-9.698,-0.000879,8.1e-05,-0.000785
62.28347706794739,-103.462,3.143,1.946,-0.0181,0.2542,0.4215,0.608,-0.358,-9.705,0.000184,-0.000365,-0.000379
62.47820997238159,-103.449,3.142,1.947,-0.0202,0.2506,0.4267,0.485,-0.3,-9.697,0.000647,1.8e-05,-0.000134
62.625345945358276,-103.437,3.142,1.949,-0.0214,0.2517,0.42,0.507,-0.345,-9.685,-0.000213,0.000212,0.000188
62.772136926651,-103.429,3.144,1.949,-0.018,0.253,0.4295,0.502,-0.358,-9.671,4.4e-05,0.000267,-0.000654
62.9279088973999,-103.416,3.148,1.951,-0.0192,0.2505,0.4241,0.546,-0.334,-9.705,-0.00017,0.000682,-0.000837
63.03235697746277,-103.409,3.148,1.953,-0.0192,0.2529,0.4188,0.576,-0.348,-9.678,-0.000434,-0.000639,8.1e-05
63.1360399723053,-103.402,3.148,1.953,-0.0192,0.2517,0.4214,0.549,-0.331,-9.704,-0.000137,-0.000413,-0.001337
63.27421188354492,-103.39,3.147,1.951,-0.017,0.2493,0.4256,0.575,-0.343,-9.727,-0.000175,0.001037,-0.0009
63.41181397438049,-103.375,3.149,1.954,-0.0169,0.2554,0.4242,0.589,-0.36,-9.684,0.000158,-0.000575,-0.001476
63.51733708381653,-103.367,3.149,1.953,-0.0169,0.253,0.4269,0.536,-0.331,-9.703,-0.00021,0.000995,-0.00024
63.61659598350525,-103.358,3.15,1.957,-0.0191,0.2518,0.4268,0.485,-0.313,-9.699,-0.000467,-0.001014,-0.000403
63.75235986709595,-103.342,3.15,1.958,-0.0213,0.2506,0.4294,0.475,-0.345,-9.727,0.000526,0.001423,-0.000259
63.89241290092468,-103.337,3.15,1.956,-0.0181,0.2481,0.4256,0.503,-0.347,-9.677,0.000274,-0.000921,-0.000521
63.99947786331177,-103.331,3.146,1.957,-0.019,0.2567,0.4267,0.507,-0.315,-9.697,-0.000736,-7e-05,0.000189
64.10404706001282,-103.323,3.146,1.959,-0.0214,0.2493,0.4227,0.463,-0.305,-9.696,0.000205,0.001141,-0.000611
64.2081310749054,-103.314,3.146,1.959,-0.0191,0.2518,0.4281,0.502,-0.31,-9.672,-9.8e-05,0.000486,-0.00158
64.27941393852234,-103.308,3.146,1.958,-0.0202,0.253,0.4254,0.587,-0.349,-9.732,-0.000387,0.000802,-0.000677
64.38552689552307,-103.298,3.147,1.96,-0.017,0.2517,0.4229,0.494,-0.315,-9.723,0.000124,8.9e-05,0.000271
64.52004790306091,-103.287,3.147,1.96,-0.018,0.2493,0.4282,0.528,-0.335,-9.704,0.00067,-0.001213,-0.000875
64.6611258983612,-103.277,3.147,1.961,-0.018,0.2518,0.4282,0.556,-0.334,-9.708,5.7e-05,0.000232,-0.000246
64.84542107582092,-103.26,3.151,1.961,-0.017,0.2517,0.4229,0.552,-0.326,-9.681,-0.000311,0.000557,0.001159
64.94986605644226,-103.246,3.153,1.961,-0.0202,0.253,0.4267,0.544,-0.311,-9.706,-0.000192,0.000542,-0.001317
65.05514192581177,-103.239,3.15,1.96,-0.0213,0.2506,0.4267,0.59,-0.33,-9.713,-0.000233,-0.000636,0.000653
65.19289207458496,-103.233,3.149,1.96,-0.0158,0.2578,0.4255,0.568,-0.324,-9.763,-0.000882,0.000271,-0.000654
65.33477592468262,-103.216,3.148,1.958,-0.018,0.2578,0.4214,0.533,-0.338,-9.701,0.0003,-0.000637,0.000292
65.4392740726471,-103.206,3.146,1.958,-0.0201,0.2567,0.4253,0.592,-0.37,-9.712,0.000342,0.000645,0.000499
65.58411908149719,-103.191,3.143,1.96,-0.0202,0.2506,0.4254,0.513,-0.314,-9.689,-0.001271,-0.000594,-0.000475
65.72302007675171,-103.175,3.142,1.959,-0.0191,0.2518,0.4295,0.485,-0.318,-9.716,-0.000379,-0.000509,0.000248
65.86369490623474,-103.16,3.143,1.961,-0.0158,0.2529,0.4256,0.5,-0.344,-9.746,-0.000574,0.000214,-5.8e-05
