Time,ax,ay,az
0.1277320384979248,-3.061725251446644,0.020613124830943904,-4.636994357292329
0.20243406295776367,-3.0617103377445396,0.02063905320086935,-4.636746683310951
0.2743220329284668,-3.061726849343298,0.020637767393405546,-4.636632700016296
0.39789414405822754,-3.061736170407113,0.020631365403816347,-4.636574110472314
0.5307519435882568,-3.0617196588083546,0.02061784570009499,-4.636581567323367
0.6098611354827881,-3.0616735861214965,0.020609142572876396,-4.636601807347651
0.6798000335693359,-3.061689831404146,0.020581262605214628,-4.636600209450997
0.7499101161956787,-3.061702348261269,0.020556049959832144,-4.636544283068105
0.8226721286773682,-3.0616786461275676,0.020556911325997216,-4.636490487214085
0.8937680721282959,-3.061690097720255,0.020508298233130263,-4.636358927056236
0.9632861614227295,-3.0616799777081125,0.02046866290596932,-4.636227366898385
1.0338490009307861,-3.061623785009112,0.020415803319520448,-4.636076631980687
1.0723271369934082,-3.0616094039392254,0.02038081396010493,-4.636031358242156
1.1411199569702148,-3.061587832334396,0.020339029378720508,-4.635989812929151
1.2131190299987793,-3.0615063396050393,0.020260882245483496,-4.635955724467197
1.2811059951782227,-3.0614163247601947,0.02019272196633428,-4.636005791895691
1.401777982711792,-3.061326842547568,0.0201477915259122,-4.636137352053541
1.476081132888794,-3.0613028740977573,0.020123700321019993,-4.636483030363033
1.561310052871704,-3.0613058035749563,0.020166073710676673,-4.636726443286666
1.6307110786437988,-3.06139608473591,0.020209485317039567,-4.636948018289361
1.699782133102417,-3.061416591076304,0.020257051870821906,-4.6370257825931915
1.768700122833252,-3.061484235367992,0.020344343217333055,-4.637124852185742
1.8438241481781006,-3.0615817070638887,0.020414735974489815,-4.637158408015478
1.9135360717773438,-3.0616416281884153,0.02048134413006622,-4.637127515346832
1.951097011566162,-3.061697021939089,0.020501471802242332,-4.637122189024653
2.0200440883636475,-3.06169675562298,0.02053886632901733,-4.637099818471496
2.087968111038208,-3.061671455592624,0.020596663166455854,-4.637049751043002
2.1608071327209473,-3.0617220556533358,0.020626049484609197,-4.637060936319581
2.280539035797119,-3.0617255177627527,0.020649701684040463,-4.637048153146348
2.3515231609344482,-3.0617335072460232,0.02067010191410939,-4.637054012100746
2.427927017211914,-3.0617478883159097,0.020662189412839413,-4.6370630668484525
2.501791000366211,-3.061726849343298,0.020662859364301137,-4.637079578447211
2.5726771354675293,-3.0616512155683395,0.02067332683574191,-4.637108340586984
2.6435420513153076,-3.0615888975988317,0.020682905893287785,-4.637190898580776
2.7278690338134766,-3.0614711858786503,0.020723856156236956,-4.637289435541109
2.7996301651000977,-3.0613817036660236,0.0207680979198459,-4.637413538847907
2.9235031604766846,-3.061259997204207,0.020837949722406233,-4.637515804233766
2.996188163757324,-3.0612077992468416,0.020887902718196634,-4.637570132720004
3.1140451431274414,-3.061228039271126,0.02088725773387013,-4.637505151589406
3.1492719650268555,-3.0613390930885824,0.020831585183519866,-4.637375721960428
3.2162461280822754,-3.061397948948673,0.020793416675553067,-4.637277717632313
3.286208152770996,-3.061523117519907,0.02070403433146728,-4.6370545447329645
3.3621060848236084,-3.06165920505161,0.020590479639299827,-4.6368159254992936
3.481096029281616,-3.061793694686659,0.020472308107711362,-4.636622047371936
3.5507471561431885,-3.061861072662238,0.020365719246270144,-4.636471845086455
3.5959999561309814,-3.0618802474220863,0.020342114900514716,-4.636487291420777
3.7137320041656494,-3.061829381045266,0.020348167350210843,-4.636589024174419
3.7879960536956787,-3.061794493634986,0.02037134933526214,-4.636801544429407
3.85589599609375,-3.0617889009966968,0.020402260729258475,-4.637080111079429
3.9309170246124268,-3.0617241861822078,0.020474114063825575,-4.637350155613963
3.999770164489746,-3.0616821082369845,0.020544342454008803,-4.637583981157672
4.076178073883057,-3.0616837061336386,0.020594990368396147,-4.637750162409693
4.193787097930908,-3.0616485524072496,0.02064465000034772,-4.637811947746983
4.2661731243133545,-3.0615084701339113,0.020761760428689352,-4.637883853096415
4.336511135101318,-3.061392356310384,0.020814584645029992,-4.637889712050813
4.404433965682983,-3.0611691834110353,0.02094338177324895,-4.637983987953402
4.476840972900391,-3.0607103207552147,0.021168984807092287,-4.638144842883243
4.600037097930908,-3.0602115106830428,0.021389211584485028,-4.638339786275036
4.671265125274658,-3.0593401243743688,0.021582521709516553,-4.638554437058897
4.743857145309448,-3.0590908524963374,0.02154273241835509,-4.638565089703257
4.820183992385864,-3.0588242700712205,0.021157655969486443,-4.638481466445029
4.8888490200042725,-3.0587555605150967,0.020313227925065763,-4.638136853399972
4.961405992507935,-3.0590519703444223,0.018804199708237403,-4.637465204173054
5.031761169433594,-3.059614696282756,0.016753519895795155,-4.636612992624229
5.099782943725586,-3.0604384120079176,0.01400677715937946,-4.6352643678482135
5.172070026397705,-3.060924438906857,0.012535018633649999,-4.634585261770243
5.245877981185913,-3.061928716953926,0.009261011613290649,-4.632828108083008
5.315380096435547,-3.0631567005325615,0.005664460934963125,-4.630601705411702
5.386705160140991,-3.064361780925822,0.0020527255570842963,-4.627951860127073
5.5057361125946045,-3.0655633992096663,-0.0012805412187928457,-4.625248751620643
5.5778491497039795,-3.066627598381262,-0.0048548641247682395,-4.6219421708112005
5.6461920738220215,-3.066710689007272,-0.005510170801239114,-4.621193822544888
5.720206022262573,-3.0663570212145097,-0.005832929280599905,-4.620588752345222
5.79085898399353,-3.065248613568819,-0.004829415852047121,-4.621057468697076
5.912335157394409,-3.0635761484042487,-0.0027380788804202047,-4.622440714567263
5.981516122817993,-3.060326292926025,0.0015342169353729255,-4.625127311474936
6.054027080535889,-3.0590676829948538,0.003097729162885373,-4.6259480977228975
6.123093128204346,-3.0566793601292708,0.006175582405541428,-4.627346789927407
6.193449020385742,-3.0544257932148455,0.008980308192612491,-4.628148934047739
6.279891014099121,-3.0527445396186788,0.011252171855964228,-4.6284285659621975
6.3478381633758545,-3.0517328047205576,0.013088796974899456,-4.628741221074173
6.466086149215698,-3.0520353398203905,0.014310951767758543,-4.629428849267631
6.535704135894775,-3.0547600199316505,0.014835283453611209,-4.631922100680163
6.603425979614258,-3.05615871213616,0.014650301948769987,-4.633173253760283
6.680423021316528,-3.0596154952310832,0.013743125251758918,-4.636407929220293
6.75033712387085,-3.0633923902890334,0.012250222683390447,-4.640210390624708
6.827749013900757,-3.0670241430675746,0.010399012596297831,-4.644159858521296
6.945328950881958,-3.0701056867649053,0.008433559660373274,-4.6479436777980805
7.065272092819214,-3.0733912286017357,0.005653231965898158,-4.652322979894606
7.186517000198364,-3.0752418592432322,0.0033470078028492454,-4.655016501021112
7.303492069244385,-3.0762682415273486,0.0017671580963390296,-4.65688550747413
7.340367078781128,-3.0768317664140095,0.0011070646218756305,-4.658089788919064
7.4142420291900635,-3.077088761459202,0.0008515376312301738,-4.658681010681062
7.48340106010437,-3.0775087419631073,0.00030366271708850057,-4.6595273632754886
7.55140495300293,-3.0779689361994733,-0.00042146123707603945,-4.659757460393672
7.624730110168457,-3.078273601828178,-0.001800236819724443,-4.658468490426073
7.743860960006714,-3.0781218016460437,-0.0044403176138135365,-4.654911572474163
7.818925142288208,-3.0772600027172943,-0.008630183132307885,-4.648865131535247
7.8899431228637695,-3.075641599722853,-0.013954153720417875,-4.641383246768779
7.961982011795044,-3.0735776498780414,-0.01978322765922097,-4.634025465309108
8.033782958984375,-3.0714654968174995,-0.02527552303194023,-4.628678370472447
8.153412103652954,-3.069801820084527,-0.029293113756974125,-4.627306842511056
8.226248025894165,-3.069396753282726,-0.03147534332429328,-4.634611893381144
8.295346975326538,-3.070303293317789,-0.03063856354562817,-4.644571583225822
8.36222505569458,-3.071064957389552,-0.029811406516995577,-4.650450245016063
8.435415983200073,-3.0725637844510483,-0.028051444027049104,-4.662256038128384
8.556128025054932,-3.07377126168929,-0.02685242024467358,-4.67246340195444
8.62827205657959,-3.0742530275304856,-0.02725228972115977,-4.681845185842571
8.700195074081421,-3.0738101438412055,-0.029041399260880403,-4.684039630580796
8.771382093429565,-3.073423985483144,-0.030228777955270635,-4.684325121449652
8.850036144256592,-3.0725763013081715,-0.03335356681139608,-4.683604470058677
8.920846939086914,-3.071984546913956,-0.03777187173432444,-4.682006040772412
8.991179943084717,-3.071744329783631,-0.04389160369867716,-4.680408676750583
9.064325094223022,-3.071925158421647,-0.052647444862098804,-4.679089879378775
9.108262062072754,-3.07205591963117,-0.058314913816707226,-4.6785348766076025
9.18224310874939,-3.0721672397647355,-0.07286620963106162,-4.67729277827519
9.252799034118652,-3.0721041228469006,-0.08198543080284616,-4.676492764683729
9.327708959579468,-3.0714971884344715,-0.10397349577032754,-4.674515633890455
9.398904085159302,-3.0704534956032696,-0.13136797748775153,-4.671585091426932
9.469442129135132,-3.0691101971494334,-0.1641597296612494,-4.667302728394084
9.592174053192139,-3.067678215431298,-0.20203740379225563,-4.661224329522088
9.666372060775757,-3.0658398353308165,-0.26672646884239143,-4.648909872641561
9.783957958221436,-3.0648030667184485,-0.31348072520274073,-4.638989597581016
9.82047414779663,-3.0634573714196316,-0.3614565069760822,-4.628275700515627
9.888375043869019,-3.062608355664114,-0.38525534671487094,-4.623043121605839
9.959865093231201,-3.060244800196669,-0.43119138011980707,-4.613555343906323
10.035263061523438,-3.056823437144244,-0.4733555118938367,-4.606076654933163
10.11142897605896,-3.052357315996181,-0.510195185700471,-4.601253670199029
10.233519077301025,-3.047252835134826,-0.5408142811224117,-4.599404371138078
10.310004949569702,-3.0392383181503417,-0.5753829443094809,-4.6005734988566225
10.377999067306519,-3.0344568787292134,-0.592393353140144,-4.6025032253824945
10.444966077804565,-3.0322081055047505,-0.5997680456727369,-4.603043314451562
10.515511989593506,-3.0281989827997453,-0.6135201434887153,-4.602791379412441
10.584776163101196,-3.0246718922520444,-0.6275277050322596,-4.5996605672349435
10.710447072982788,-3.021465978931807,-0.6431369582344048,-4.593267915354318
10.780616044998169,-3.017023293601337,-0.6706224451597038,-4.578603485127905
10.850345134735107,-3.0155308581264566,-0.68065317482646,-4.572850524541116
10.927746057510376,-3.0126746178573462,-0.7015496683197667,-4.56116137788454
11.000412940979004,-3.009870575545602,-0.7227862474842767,-4.550026701366919
11.070400953292847,-3.0070172647536912,-0.7436365351326705,-4.5400941757653595
11.152631044387817,-3.0043394562776164,-0.7636416686091277,-4.531933717553138
11.275366067886353,-3.0017527279108225,-0.7827891976355522,-4.525149580992271
11.343219995498657,-2.997948135977535,-0.8099866636889591,-4.516778200421716
11.415040016174316,-2.996625343864093,-0.8186808193836318,-4.514235946845126
11.483009099960327,-2.993873499509714,-0.8356712545061193,-4.50924731349119
11.553030014038086,-2.990784498961331,-0.8519801867056556,-4.50421393903094
11.627772092819214,-2.987358874851162,-0.8674611421222862,-4.499181629835126
11.750815153121948,-2.983457077538087,-0.8817382821471738,-4.4941088405907434
11.819731950759888,-2.977572556793448,-0.8998401209715786,-4.487723112928951
11.886553049087524,-2.9757773199026256,-0.904686075470114,-4.486219492177493
11.957450151443481,-2.9726507687828727,-0.9122802124765295,-4.48423650242982
12.030632972717285,-2.970517576749719,-0.9167274251808528,-4.484042624302462
12.152356147766113,-2.9694195554322795,-0.9178783102459306,-4.485315615303519
12.233917951583862,-2.9701884100389853,-0.913282293415699,-4.490064564159349
12.303493022918701,-2.9722425061877633,-0.9058568010853129,-4.494502988432075
12.375967979431152,-2.975217523441491,-0.8946116033824533,-4.499346213190493
12.445266008377075,-2.976934197080156,-0.8873805883906701,-4.5017398623782565
12.513828039169312,-2.9812628991159706,-0.8691465901971701,-4.507298412205469
12.584048986434937,-2.9864150505608382,-0.8452846002510329,-4.513326743648973
12.622127056121826,-2.989432678392007,-0.8309865544115882,-4.516808560458142
12.695444107055664,-2.9928258119368767,-0.8150247652601438,-4.520721809363905
12.766404151916504,-3.000472546374821,-0.7777813229427399,-4.52976696969025
12.846271991729736,-3.0094982656252087,-0.7333934183689804,-4.540991661052716
12.915666103363037,-3.019379924849948,-0.6820581920385586,-4.554366056047094
12.985486030578613,-3.0297172509371997,-0.6245909041401747,-4.569812923001772
13.062787055969238,-3.039647912325996,-0.5623725368570895,-4.586686179036295
13.100486040115356,-3.0442727578750275,-0.530109372225702,-4.5953398546824
13.148550033569336,-3.048486411351751,-0.4974017925874074,-4.603856111216254
13.26974105834961,-3.055609834635495,-0.4317968497936366,-4.620146134972051
13.342133045196533,-3.062572669305507,-0.33662552586731964,-4.64040054032654
13.409579992294312,-3.063984144683249,-0.30637787483841766,-4.645849367916842
13.481384992599487,-3.0656201245408847,-0.2481909841687376,-4.654871092425594
13.550932168960571,-3.066309350630997,-0.19246611934780852,-4.662112760061738
13.668828010559082,-3.0662153410445177,-0.1378806130978642,-4.66832112119493
13.74056100845337,-3.065359933702384,-0.05617848853954283,-4.677225133983502
13.811223983764648,-3.0649109247425965,-0.029118828588979854,-4.679823313942983
13.8803391456604,-3.0639631057106373,0.023766665423869203,-4.683921918860615
13.952500104904175,-3.063180668982372,0.07310829929652822,-4.68560343877289
14.071349143981934,-3.062878400198648,0.11676652269874117,-4.68415148334658
14.141870975494385,-3.0639433983185707,0.16838823026104993,-4.676253080185623
14.263002157211304,-3.06599722815124,0.19405566033393595,-4.669114210567556
14.387405157089233,-3.0713544430000432,0.2244267488793631,-4.6603641284899915
14.45615005493164,-3.0790954533405768,0.2538045948514884,-4.659312712491628
14.527778148651123,-3.08199909787709,0.264961758435564,-4.661270135892837
14.596174001693726,-3.0882641843415013,0.29028838711270394,-4.668326447517111
14.669053077697754,-3.0946541730610377,0.32019794984122035,-4.678926361287844
14.745052099227905,-3.101015133324692,0.3540050488250677,-4.6912631887215275
14.782044172286987,-3.103972840031334,0.3721230330635812,-4.697742127021472
14.82239294052124,-3.1067819423491496,0.3908833384675081,-4.704245566403445
14.86073112487793,-3.109293036940985,0.4101789725400546,-4.710736755244405
14.905559062957764,-3.111613182882662,0.42975497089635917,-4.716908897386772
15.025038957595825,-3.115570373946411,0.4694897671240186,-4.728320010025544
15.098044157028198,-3.1199856287176533,0.5293082933698061,-4.74237404373011
15.17008900642395,-3.1212303902111564,0.5490624239135233,-4.746214854654222
15.243255138397217,-3.1236520025903656,0.587864314811328,-4.7523507778057645
15.312623977661133,-3.126230208841671,0.6253692795477777,-4.756398782662685
15.385204076766968,-3.129187382916095,0.6616459943894828,-4.758816400300259
15.503397941589355,-3.132669466041374,0.6965856692059136,-4.759676601332354
15.57539415359497,-3.138566503643136,0.746922010390474,-4.759196167071704
15.643278121948242,-3.1406280566429663,0.7632817423878036,-4.758785507631615
15.714251041412354,3.138163833686316,0.7955420108315057,-4.757808660143773
15.781883955001831,3.133588789249669,0.8271616558749891,-4.756717296729058
15.8177011013031,3.1312220379889157,0.8426324912794775,-4.75601368956906
15.887798070907593,3.1287966971841805,0.8577862773561918,-4.755196099114405
15.960437059402466,3.1238205806873673,0.8868685956711024,-4.753009111227232
16.04265594482422,3.118733410373098,0.9138296395987375,-4.750003467620969
16.112323999404907,3.1136632842898053,0.9380758571111459,-4.7461275029704675
16.232630968093872,3.108761203671296,0.9591613018837939,-4.741355650929264
16.303450107574463,3.102432733972941,0.9841343626367122,-4.732918756595892
16.37389612197876,3.10085987103314,0.9906085072466948,-4.73006065211402
16.451272010803223,3.0987855348600775,1.0005312457312483,-4.7242714725364054
16.520223140716553,3.0987988506655277,1.006240730213242,-4.719019186234551
16.587130069732666,3.1012313820052064,1.0073843581643491,-4.714408189123188
16.661203145980835,3.106664230628968,1.0036798345090217,-4.7110227787454795
16.697772979736328,3.11036815507305,0.9998990778674907,-4.709735939306753
16.771615982055664,3.11456929169265,0.9947286171901291,-4.708591845302455
16.84462308883667,3.1239031386811598,0.9801494081185993,-4.706758525208044
16.912353038787842,3.133342979481055,0.9597189012370292,-4.705112159022157
16.9824481010437,3.141372942799862,0.9330661847845979,-4.703266055754514
17.019901037216187,-3.13843654138194,0.9173739075354695,-4.702431953701102
17.091004133224487,-3.1356817675503623,0.900046049902869,-4.701466824122057
17.16120409965515,-3.1315677162984077,0.8605483748807675,-4.699794891589705
17.239894151687622,-3.1288283888011525,0.8147686357423054,-4.698449462606997
17.31291103363037,-3.1266166335158414,0.76335717642568,-4.697857175580563
17.382599115371704,-3.1242916938842025,0.7075131517907267,-4.69812668748288
17.509905099868774,-3.1213302587520344,0.6489932494714891,-4.6995584028849064
17.58254909515381,-3.1161384262069247,0.560817184201456,-4.704096962014619
17.621085166931152,-3.114390859899615,0.5323663013810033,-4.706277558315176
17.65664005279541,-3.112684572589201,0.5048011859391108,-4.708863487733643
17.72768211364746,-3.11100438425747,0.47823785183076534,-4.7117402343431465
17.799533128738403,-3.1079966101223344,0.42853940430630616,-4.718000260801487
17.86848211288452,-3.1050061465342846,0.38356097705033526,-4.7241969040258835
17.942240953445435,-3.1017107510014204,0.34282569778016037,-4.729044389842045
18.06503915786743,-3.0978771306122517,0.30544556871980816,-4.731419396902178
18.142261028289795,-3.090709232538303,0.2538531808966255,-4.729328815446466
18.215353965759277,-3.0852433607170244,0.22159236317594858,-4.724370542128956
18.28296399116516,-3.082503500587551,0.20596746390239917,-4.721209369915032
18.361204147338867,-3.0770256445413673,0.17562686855145343,-4.713637470303719
18.430258989334106,-3.0718966625979833,0.146713744189547,-4.705511633185669
18.498212099075317,-3.0675940595408515,0.1194039177052739,-4.697585533149375
18.566910982131958,-3.0645439411443838,0.09369836281690773,-4.68973773004913
18.634953022003174,-3.0638062455224317,0.08149451866778208,-4.685936866541368
18.706736087799072,-3.064744743490576,0.05867918848074883,-4.678622228291357
18.777724981307983,-3.070535520964844,0.03843133283806611,-4.6724037471460225
18.900525093078613,-3.082978342209912,0.021375336099086796,-4.668071849316899
18.978381156921387,-3.1168612081267724,0.0029969716879638575,-4.666913374242715
19.049581050872803,3.133592783991304,-0.003883306028553155,-4.669805034554323
19.120718955993652,3.0936496286978596,-0.006687543396041488,-4.674949729148138
19.191895008087158,3.0715206242520643,-0.0067091477702361044,-4.6779654927665435
19.26341700553894,3.0243097023437935,-0.004447271481120816,-4.684063066398389
19.331454038619995,2.974956267338554,7.233660955458472e-05,-4.688896171144664
19.4096839427948,2.9248635388147086,0.005741053864032724,-4.691261590824873
19.49432897567749,2.875203573968001,0.011731579343178622,-4.6907023269959565
19.571563959121704,2.8262096657099223,0.017572416963859302,-4.6874426178216995
19.643521070480347,2.7783752977904643,0.023036936398646873,-4.682217495762964
19.76622700691223,2.7327681314906394,0.028121574629286057,-4.67562830259389
19.844170093536377,2.67138306731264,0.035636357757595556,-4.664630512556299
19.966909170150757,2.6367180309836233,0.040985337612965723,-4.657169400446333
20.090111017227173,2.595594829011165,0.04981510646377228,-4.646292517922231
20.215362071990967,2.567157594891299,0.0591494736009324,-4.635934419178477
20.288996934890747,2.548150614191403,0.06728684969664278,-4.625848495498129
20.361511945724487,2.5386170301211375,0.07119035725848041,-4.619222550706012
20.483137130737305,2.5299401849735506,0.07337528951818707,-4.612579561682918
20.613914012908936,2.5169474209633806,0.07341518700026782,-4.602794575205749
20.682724952697754,2.503308307756649,0.07053930591811851,-4.594010404666232
20.750550985336304,2.498869883483923,0.0692936913808288,-4.591543252232382
20.82260298728943,2.49026441105355,0.06671218946767413,-4.587365285114266
20.89214301109314,2.4821404381482632,0.06433680373932396,-4.584301051964021
21.011327981948853,2.47474297558835,0.06241222460449696,-4.582344693827248
21.08350896835327,2.465630969918644,0.06006485616305228,-4.580994471154578
21.153002977371216,2.463437324128746,0.05932388984638658,-4.58092150054071
21.225188970565796,2.460955257992792,0.05762392754356174,-4.58112017235803
21.3002290725708,2.4620892319849474,0.05554047836614391,-4.581803006861526
21.37105894088745,2.468385743750222,0.05307224818429086,-4.582966275625673
21.443660020828247,2.481597419601996,0.0504058455278223,-4.5846504586990395
21.51693105697632,2.5033519835985265,0.04800259231537798,-4.586926928798839
21.6354660987854,2.533917882377693,0.046087975067503555,-4.589609264648766
21.70452904701233,2.5951093347444436,0.04445409661041552,-4.593986436216421
21.773586988449097,2.618662864057322,0.044209414524075286,-4.595439989539386
21.845702171325684,2.6685497302289045,0.044105559563940605,-4.598175588611116
21.91466212272644,2.720186559552778,0.04438982704317134,-4.600736484315336
22.039932012557983,2.7711022048534577,0.04480504714662832,-4.603044912348216
22.1101131439209,2.8431476365589354,0.04545077216481007,-4.606420735346001
22.181620121002197,2.888065310452539,0.045748047521490164,-4.608803731889404
22.261147022247314,2.93156618264622,0.04589003145829421,-4.611593126815153
22.30062198638916,2.953237922332849,0.045842423292619845,-4.613122313913077
22.373733043670654,2.9751131275267597,0.045727066805527385,-4.614771875892271
22.44882106781006,3.0198467769890387,0.045257027195506803,-4.618634524737322
22.52776312828064,3.0662853821811864,0.04443970305696148,-4.6233584398789045
22.602370977401733,3.1144662273584642,0.043375404016824944,-4.629010200344271
22.673871994018555,-3.119380824834096,0.0421467671314845,-4.635481149160945
22.746381998062134,-3.0693453542736875,0.0408097104614534,-4.64242986907718
22.87024998664856,-3.0188851095194114,0.03939796460641319,-4.649350892118078
22.943341970443726,-2.942723496033107,0.03717807419621003,-4.658869562486239
23.01121211051941,-2.917412813032994,0.03637304221057111,-4.661598237339135
23.081135034561157,-2.8676124995968393,0.034700832959137354,-4.666432407349847
23.150028944015503,-2.8198537654523395,0.032786781632994574,-4.6702828056538825
23.26707100868225,-2.7758985579766904,0.030533566339057197,-4.6733843230593894
23.336133003234863,-2.719073624533234,0.026539688150698015,-4.677271472986469
23.405266046524048,-2.7025045014951967,0.024950661071437195,-4.67843633964727
23.477609157562256,-2.6719923985700498,0.021447162385924073,-4.680639839133201
23.54943299293518,-2.6436843277630526,0.017513207402686273,-4.682807652260526
23.621400117874146,-2.6160151493015653,0.013435255507367351,-4.685209290931559
23.657106161117554,-2.6020380809525028,0.011443589680205576,-4.6865382083155085
23.70447301864624,-2.587829583904712,0.00957179627071909,-4.687968325820881
23.83183002471924,-2.55906637886742,0.006264428476368644,-4.6913824983383625
23.903274059295654,-2.516214252715282,0.002882901268409523,-4.697836402924061
23.94146704673767,-2.5025780689857493,0.002189264837890223,-4.700325393278849
24.067002058029175,-2.476902000284077,0.0013323817039984072,-4.70569645656532
24.14005398750305,-2.442977322738103,0.0009263231087581932,-4.714317641646125
24.217384099960327,-2.4327515831005257,0.0008842088181479941,-4.717202910371117
24.27102303504944,-2.413365634577512,0.0008415250948027628,-4.722856801365356
24.339715003967285,-2.394924575609258,0.0006412924414201456,-4.728101630816157
24.406502962112427,-2.3769439771934793,0.0004075968048366274,-4.732852177568641
24.478858947753906,-2.3681052118516153,0.00026463402954573714,-4.73503490439807
24.552879095077515,-2.3504995865173193,-4.810181112557301e-05,-4.738934304866164
24.630960941314697,-2.332798620015999,-0.0003104289082608551,-4.742056062295955
24.700160026550293,-2.315251850541794,-0.0005732763084656739,-4.744399644055224
24.780133962631226,-2.2979357108179896,-0.0007485736857336357,-4.746026302849045
24.865321159362793,-2.281079765330551,-0.0009135931207253168,-4.746993030324743
24.934205055236816,-2.2648989311794474,-0.0010573995933818112,-4.747512346737309
24.969676971435547,-2.257149398723426,-0.0011196514389924825,-4.747658287965045
25.0389621257782,-2.24968029713019,-0.0012003082894677046,-4.747744574384364
25.11458396911621,-2.235584984428727,-0.0013788742808548183,-4.747777064949663
25.196943044662476,-2.2227147258287014,-0.001524927600625323,-4.747833523964772
25.264556169509888,-2.211385904867613,-0.00166042021230947,-4.747918745119655
25.333572149276733,-2.2021061200492325,-0.0016547369381179704,-4.74808918742942
25.374300003051758,-2.1985577242128107,-0.0015681609260382895,-4.748261760268057
25.413629055023193,-2.195802018274851,-0.0013882738871163068,-4.748424213094552
25.449185132980347,-2.194077887785134,-0.001116570598536127,-4.748660701799351
25.495707035064697,-2.1934854676006457,-0.0007463488799186862,-4.748913169470691
25.616549968719482,-2.196186179262095,0.0004180297514107291,-4.749600265031931
25.69039297103882,-2.2122690090850834,0.0032128677076933166,-4.751338243959316
25.767733097076416,-2.2212178961380222,0.004456009458298988,-4.752136127021904
25.83967113494873,-2.245217105459326,0.007284007216137871,-4.754193152647882
25.915503978729248,-2.2774759757434557,0.010510603207161356,-4.756685338795978
25.98436999320984,-2.317980525394689,0.013953017715765388,-4.759373000968086
26.052606105804443,-2.36613900001881,0.017586614941420785,-4.762095816866583
26.181153059005737,-2.420762298189098,0.021234563068340886,-4.764450051270213
26.249941110610962,-2.510929475848129,0.027057263105581906,-4.767140376603411
26.32008695602417,-2.5419134909184375,0.029191799202848024,-4.767795514231571
26.391107082366943,-2.603302549838072,0.033861198604678816,-4.768792069111478
26.465115070343018,-2.6618321726952887,0.039040089851366186,-4.769332690812764
26.53491711616516,-2.7159089902098925,0.044599059958689104,-4.769404063529978
26.570521116256714,-2.740986380298515,0.04742692923981133,-4.7692480022901
26.64035415649414,-2.764687715051893,0.0502442124556005,-4.7688996608195175
26.71192216873169,-2.8086418572631056,0.0554792339834505,-4.767569145538913
26.78282403945923,-2.8485708978027726,0.06003003533179949,-4.765324633372194
26.85416316986084,-2.885957418449741,0.06356430393087603,-4.762169852744887
26.89071011543274,-2.903944408452136,0.0648678879949562,-4.760291791544163
26.961084127426147,-2.9216554949655995,0.06586125540393416,-4.758364195547164
27.04141902923584,-2.9556635294536933,0.06663932288353604,-4.7542128600399485
27.11183500289917,-2.987052345009694,0.06512343494630611,-4.749831960046768
27.17947006225586,-3.0141923533625827,0.060248035872968494,-4.745144796528228
27.263803958892822,-3.03557194427763,0.050782749401095756,-4.739957491356972
27.34380602836609,-3.0502486250450564,0.03533773833680281,-4.733715041761826
27.41581106185913,-3.0584098822056043,0.013204701698669448,-4.726270441250619
27.536399126052856,-3.061159329715002,-0.015733569769889537,-4.71764233195098
27.60677695274353,-3.05876807737222,-0.0702612302884222,-4.703299078952031
27.679316997528076,-3.057193083903547,-0.09074862894877915,-4.698479290011206
27.748337984085083,-3.054041232753438,-0.13397323979125675,-4.6892141525788205
27.821769952774048,-3.0515879287572574,-0.17891597236624218,-4.680769801394397
27.89622712135315,-3.0500062773858594,-0.2243103021606994,-4.673053558452001
27.98098111152649,-3.0489679108768373,-0.2691000943877086,-4.665976474171225
28.061059951782227,-3.0480070423555365,-0.3125466880294227,-4.659261579798699
28.114379167556763,-3.0464621426071816,-0.353829945983395,-4.652702746666052
28.184136152267456,-3.045319380183429,-0.3733645654742625,-4.64948724596589
28.257471084594727,-3.0418849676416624,-0.4098633546613666,-4.64300191607933
28.330137968063354,-3.036856919503593,-0.44245531981883807,-4.636462790338749
28.4033420085907,-3.030338033787297,-0.4706913854078623,-4.630061083710416
28.444688081741333,-3.0266588767413527,-0.48319146461636725,-4.626958501040474
28.567573070526123,-3.0187586093676324,-0.5050798191681604,-4.62102977182174
28.64447593688965,-3.0071959628628355,-0.5311766007430376,-4.613493558569033
28.764650106430054,-3.000591855991657,-0.5450818303216955,-4.609716663511083
28.835090160369873,-2.9931453912676864,-0.5624276642916541,-4.605874787322534
28.90464997291565,-2.991282776401285,-0.5674944614235844,-4.605042815797994
28.97788405418396,-2.9882789970077845,-0.5768180552418973,-4.6037916627178745
29.05593514442444,-2.9858158393155705,-0.5850520832792315,-4.602753029892744
29.127526998519897,-2.983924195993287,-0.5919384852259585,-4.602094163839058
29.25130009651184,-2.982380627825477,-0.5971024877376766,-4.601460331499619
29.326367139816284,-2.9814831425381203,-0.5999053316269305,-4.6017612687027984
29.39688014984131,-2.982330826713093,-0.5972813855839026,-4.6031876577826445
29.46380615234375,-2.983350817410593,-0.5942440503606673,-4.604457985622613
29.53262209892273,-2.9866667192838507,-0.5840772997412353,-4.6082146406562785
29.65237307548523,-2.991658548431095,-0.5675290159387282,-4.613945230689911
29.72799515724182,-3.001271761017954,-0.5291962408669411,-4.6257137395469705
29.801445960998535,-3.0082124914509185,-0.49442018400998194,-4.635171689842278
29.877625942230225,-3.0115632807344563,-0.47442064317181387,-4.640192281129296
29.945460081100464,-3.0178600588158395,-0.42982188281874745,-4.650474213465873
30.017431020736694,-3.0234289949713045,-0.3801665785039475,-4.661012341899317
30.090221166610718,-3.0282770134196846,-0.3267815836615189,-4.671695346296061
30.21202516555786,-3.032555648027006,-0.2709947337662182,-4.682621763616438
30.288022994995117,-3.038486241458503,-0.18451665007294926,-4.700429256561362
30.355828046798706,-3.042098020528869,-0.125583316961612,-4.7133493162737725
30.42765712738037,-3.04378619834387,-0.09590262796165268,-4.720001360044573
30.49572205543518,-3.0468222019865605,-0.03635430021439968,-4.733352851853575
30.569847106933594,-3.049409196669463,0.0226103229591514,-4.74589580795563
30.64274311065674,-3.0515628950430105,0.08002310552075649,-4.756743395707741
30.681579113006592,-3.0524606466464763,0.10785927250497013,-4.761326695943768
30.750497102737427,-3.053403671988473,0.13488977500278593,-4.765323568107759
30.81888699531555,-3.055032461311166,0.18645826095518514,-4.77156175664516
30.890121936798096,-3.0567472707370675,0.23409289179288745,-4.775664622620536
30.96203899383545,-3.058500163366558,0.277715770054008,-4.778354415321516
30.999382972717285,-3.0594234813164882,0.29805013682022624,-4.779381330237851
31.071774005889893,-3.0604365477951547,0.3174098864960164,-4.7802330091544585
31.142375946044922,-3.0623865143453104,0.3536982526674906,-4.781903343790156
31.212594032287598,-3.0642432702573137,0.3871919641700629,-4.783730272297951
31.282465934753418,-3.0659066806741775,0.4182769463351994,-4.785560929231271
31.411163091659546,-3.0674563741124943,0.44716006020057203,-4.787240318614675
31.481281995773315,-3.069970398181529,0.4871127030053999,-4.789714395267358
31.55544114112854,-3.0710923879487795,0.49969417507472036,-4.790571933138364
31.635310173034668,-3.073998163014165,0.5240484836378724,-4.792599131360133
31.70433807373047,-3.0779436361691173,0.5475909608322274,-4.795285195635587
31.777600049972534,-3.0829237474075657,0.5704256030983529,-4.798765414548102
31.850537061691284,-3.088793887082318,0.592310395672188,-4.802683989776044
31.974173069000244,-3.095037668258009,0.6129903741688714,-4.806795910499127
32.0461151599884,-3.104249808784702,0.6403448335685384,-4.811663636339573
32.117687940597534,-3.109456555031916,0.6548743746857383,-4.813272185637981
32.191198110580444,-3.111775369393048,0.6604898495812521,-4.813174713942084
32.26455616950989,-3.115471038037751,0.6677427690730011,-4.8114042444494
32.33617115020752,-3.1177019680829106,0.6686106266932307,-4.8073977849054845
32.412636041641235,-3.1183105003919933,0.6621149770574457,-4.80144508723694
32.48204708099365,-3.1172998307583084,0.647613998342937,-4.794097958421629
32.51956796646118,-3.1162353652706036,0.6373057007115673,-4.790043029345874
32.561063051223755,-3.11493174791701,0.6249847190863702,-4.7858192558570085
32.59680414199829,-3.113313344922569,0.610817301298394,-4.781638092945585
32.67535400390625,-3.1116003997094297,0.5948794140177329,-4.777326435140746
32.757266998291016,-3.1079705111436517,0.5585909146882042,-4.769047199943907
32.828819036483765,-3.1045624638966776,0.5179216818130633,-4.761475832964813
32.90088200569153,-3.1017501657855537,0.4746351607976198,-4.754618193157858
32.97761511802673,-3.0994542546097965,0.43017065705300694,-4.7484641605109035
33.04999399185181,-3.097927996989072,0.3856108787203965,-4.742673915668853
33.17400908470154,-3.0972251887774003,0.34151615489314113,-4.736981675154918
33.23541593551636,-3.0992587785857846,0.27664541232239154,-4.72805529181319
33.3044331073761,-3.1014194011781657,0.2556039596420004,-4.725042723988092
33.372297048568726,-3.1093604149165643,0.21491132423878043,-4.719360070854081
33.44425296783447,-3.1230583839833868,0.17708892734515014,-4.714490214484762
33.57001996040344,3.139542019550432,0.14334391330421523,-4.710462982284344
33.6465699672699,3.0962768371132228,0.10298190102795016,-4.705810439859976
33.7143759727478,3.0616472208267047,0.08391500752590626,-4.702944878527051
33.783666133880615,3.0435281380342416,0.07685024868754972,-4.701447649362208
33.85085201263428,3.0074710674034404,0.06743294488837964,-4.698240138145317
33.924883127212524,2.97363667101842,0.06353342790698793,-4.69445418833966
33.9997980594635,2.9431333565248705,0.06360923229070352,-4.689883138644648
34.07235598564148,2.9157118520447605,0.06592041503083675,-4.6842707929634155
34.149171113967896,2.902653307955666,0.06738485402475769,-4.681104827059529
34.217878103256226,2.876710390512768,0.07027398849451937,-4.674046917538601
34.28991508483887,2.849443349375883,0.07235549855776847,-4.666128274353359
34.36860799789429,2.819572801957336,0.07300496032385474,-4.657374463850269
34.44337606430054,2.7863956737293467,0.07214152188655902,-4.648011854721986
34.514886140823364,2.7498501793546253,0.06986258836275097,-4.638248173533538
34.637585163116455,2.7104218130998934,0.06652434506466107,-4.628456262837535
34.71103501319885,2.647323537392646,0.060503050192100394,-4.614389978591954
34.780781984329224,2.625516242806532,0.05842747398465511,-4.610051689176215
34.85387206077576,2.5817663650509286,0.054417943483107904,-4.602050487997181
34.923481941223145,2.5391826855366704,0.05072047304347994,-4.594968077394224
34.993525981903076,2.4997130402850423,0.047727862281801085,-4.589089948236201
35.03201198577881,2.481818461972473,0.046541815167955886,-4.586565804155024
35.15370512008667,2.450789173163632,0.04485413669565905,-4.582345226459466
35.27836608886719,2.417671167111843,0.04403742425192661,-4.577973381213993
35.34932804107666,2.3999382426774414,0.04481466365487703,-4.575538719345442
35.418550968170166,2.396864688463381,0.04525892885897269,-4.575068405096934
35.49035096168518,2.3941368125588127,0.046257073313155976,-4.574566132915345
35.56134009361267,2.395598355365048,0.04727983120147649,-4.574537903407791
35.680129051208496,2.4016205615380444,0.04836526908276553,-4.575024196622839
35.75269913673401,2.421640076084388,0.050134323771121106,-4.5762961223594605
35.82157111167908,2.4445331414469273,0.05155948113896339,-4.57742104160391
35.86104893684387,2.459239383302454,0.052357239365875025,-4.578043688666771
35.90010714530945,2.4762111762973107,0.053184824996995554,-4.5786428999120385
35.938207149505615,2.4954903320606125,0.054026142552486806,-4.579247437479486
35.98555111885071,2.517056077935856,0.05488782496793876,-4.579832800287086
36.05358409881592,2.5665527910077417,0.056470874498909106,-4.580817637258197
36.12777900695801,2.593956984940766,0.05713570353672297,-4.581231492491596
36.200101137161255,2.6526133742658704,0.05805620852275204,-4.58200593973659
36.27018094062805,2.714208295537768,0.05846567370154093,-4.582950829291351
36.340989112854004,2.775849822128742,0.05833824560456984,-4.584328748839358
36.465863943099976,2.8353238019085008,0.05788830037721175,-4.586472593516872
36.53459095954895,2.918188591858534,0.05692736943807311,-4.59132114459747
36.60565495491028,2.943923516420297,0.05650016927089998,-4.593316917518375
36.67984104156494,2.9934708295528942,0.05565541873431605,-4.597751080733357
36.74951696395874,3.041267646900982,0.054686681404232114,-4.602713615108611
36.819674015045166,3.0888069365716597,0.05356969338640404,-4.608174160607709
36.85553812980652,3.1129439644793746,0.0529522852607504,-4.610991252408795
36.927531003952026,3.1375353276690574,0.052345746161295656,-4.613891967468109
37.00131106376648,-3.0949258154922257,0.05110120521082039,-4.619854252516578
37.071675062179565,-3.042306546042222,0.04988066599966946,-4.625842636543731
37.14301109313965,-2.9882763338466947,0.048621044899521626,-4.631361238954593
37.180047035217285,-2.9611845287095364,0.047968012833098976,-4.633897633576784
37.21947503089905,-2.934326282799978,0.04724579683498312,-4.636201267919703
37.25383400917053,-2.907804394136097,0.04646528673731894,-4.638228998773689
37.32577300071716,-2.8820937043402544,0.04554242235701162,-4.640032491463891
37.407727003097534,-2.8335661155890484,0.043443714098785474,-4.643078615118724
37.479686975479126,-2.789870832635791,0.04098173402311571,-4.6457795930962815
37.549476146698,-2.751088016629294,0.03817978478954051,-4.648530638502334
37.62752294540405,-2.716220047425214,0.03514907417951671,-4.6517786297677945
37.69529700279236,-2.6835728882541505,0.0320527728246767,-4.655717977652239
37.76458811759949,-2.6519265450207388,0.02896875113917548,-4.66043443594277
37.82021713256836,-2.6361254776410807,0.02752007472995644,-4.6630272895800715
37.88798403739929,-2.604447709106806,0.024846768660599684,-4.668544294094279
37.92376399040222,-2.588736390255884,0.02364461150275411,-4.671434889141452
37.993643045425415,-2.573054099860843,0.0225971278281879,-4.674312168383173
38.06432008743286,-2.5425063105770893,0.02096916658214688,-4.6800619331766535
38.13363814353943,-2.5137524266036126,0.01999851094384025,-4.685632733544882
38.1690731048584,-2.5002118503572137,0.019786438016691277,-4.688317199923682
38.213555097579956,-2.487235864261912,0.01973791022820299,-4.690909520928765
38.33444905281067,-2.462760614895757,0.019993596579391214,-4.695693623510983
38.40630602836609,-2.428753911988208,0.020943217406275423,-4.701790131878393
38.47746515274048,-2.4179891485459986,0.021320019330413408,-4.70344981386973
38.54417014122009,-2.397999195087755,0.021993189471985176,-4.706241871956569
38.61340594291687,-2.3809405830413612,0.02275442702185451,-4.708324463929011
38.65076208114624,-2.374147924365005,0.0231180483791912,-4.709144184912537
38.68832015991211,-2.3685755261001233,0.02355861220549057,-4.709778549884194
38.72768211364746,-2.364535777042582,0.02403982460852187,-4.710269104156986
38.79373502731323,-2.3622569100978015,0.024569889372799313,-4.710629163536366
38.86296796798706,-2.363477436825385,0.025918636903896935,-4.711117054648068
38.93302297592163,-2.3733902550348773,0.027620099315429535,-4.711544225686916
38.96840715408325,-2.381881211538377,0.028616038339335105,-4.711856880798892
39.04002809524536,-2.392935194274969,0.029668165901052142,-4.71233518453067
39.11100101470947,-2.422515723450806,0.03200146952298985,-4.7137977926013415
39.182868003845215,-2.462282311163978,0.034497631687369704,-4.716256955551921
39.252115964889526,-2.5116301535309287,0.037136291695420216,-4.719795764008418
39.286293029785156,-2.5395464733415753,0.03850706648156523,-4.721968370825705
39.3609881401062,-2.569249241611447,0.039900012083785165,-4.724312485217193
39.43289399147034,-2.6327429967405713,0.042777828118913994,-4.7293559796895845
39.502171993255615,-2.6986335968507666,0.04577535324504188,-4.734411192070773
39.57216215133667,-2.763070377321888,0.04897489578460909,-4.738986502823529
39.60669994354248,-2.793548658101191,0.05062633862132404,-4.740871488243087
39.674931049346924,-2.8225092033752572,0.052322497597217105,-4.7424651238393905
39.74564814567566,-2.8747167481207345,0.05588726355196426,-4.744498181015557
39.81393098831177,-2.91896010962633,0.05970339446291207,-4.745005246887108
39.936378955841064,-2.9554792387062596,0.06363928856031859,-4.743971407751939
40.00553107261658,-2.9988038096357776,0.06955097354807648,-4.739828061727994
40.077439069747925,-3.01098244530071,0.07139538737290288,-4.7379185752264075
40.1501190662384,-3.032929023211835,0.0747896194717225,-4.733702791220812
40.218589067459106,-3.052417237120708,0.07768038096646264,-4.72940285132477
40.28995203971863,-3.0693442890092517,0.07989328473999353,-4.725351650674542
40.324440002441406,-3.076915922304456,0.08072658784507933,-4.723479448428216
40.39309310913086,-3.08391311175253,0.08148602151942905,-4.721893802315183
40.462157011032104,-3.095629955284443,0.08256221323830848,-4.719210401200819
40.53204298019409,-3.104280701453347,0.08325584186659803,-4.717166691380292
40.57003307342529,-3.10757103698014,0.08352433011637005,-4.716365079892178
40.64080309867859,-3.110197712763285,0.08382571672798295,-4.715757346531422
40.734578132629395,-3.113693111694014,0.0845060461955789,-4.71493123396128
40.805058002471924,-3.115447335904049,0.08570460184416907,-4.71432722902605
40.87744212150574,-3.1154854191076375,0.08609688547273774,-4.714161047774028
40.95009112358093,-3.115132017630984,0.08674732927947597,-4.713805249452394
41.02748394012451,-3.1141884596567686,0.08703514209190788,-4.713193787666111
41.10114097595215,-3.1130635404123193,0.08692859068116948,-4.712316009770822
41.174596071243286,-3.1116922787670376,0.08629777104271379,-4.711073378806191
41.297707080841064,-3.110168684307403,0.08522549916406381,-4.70955963804259
41.3695969581604,-3.1074916747796557,0.08328689266043267,-4.707034428696977
41.41095805168152,-3.1066514474557354,0.08263001565518621,-4.706214175081232
41.447368144989014,-3.1058431780648967,0.08205270890988428,-4.705475946827062
41.51398706436157,-3.104980846503929,0.08159228996930162,-4.7047952428524376
41.58273911476135,-3.104006395861069,0.08101736342422396,-4.703900420726171
41.65255403518677,-3.103370432992758,0.08092429426650409,-4.703491359182735
41.69062805175781,-3.103337409795241,0.0810234470828391,-4.703421051729957
41.72992300987244,-3.1033904067009335,0.08128910572395291,-4.703539296082356
41.76463294029236,-3.10358188798331,0.0816437555573674,-4.703743826854074
41.84007501602173,-3.1038532640983894,0.08213844605222803,-4.704074058829244
41.91109108924866,-3.1047020135377976,0.08335644277677577,-4.704976870438781
41.98308801651001,-3.1056620831107713,0.08497347257877985,-4.70622003403563
42.053159952163696,-3.1064546398511785,0.08677974494336928,-4.707526048234205
42.12743401527405,-3.1070852763973096,0.08864450698339957,-4.708785190797594
42.163414001464844,-3.1073159061477105,0.08937594417678983,-4.7091218143593805
42.23541212081909,-3.107500463211253,0.09015601734958767,-4.709502113763044
42.30337595939636,-3.1077984709372326,0.0912706334895699,-4.709762570917654
42.3773980140686,-3.1077800951257113,0.09146223128524429,-4.709001972110327
42.44831395149231,-3.107436014712873,0.09082338055162631,-4.707406205985151
42.48481297492981,-3.107136675406348,0.09023331560022722,-4.706386747919869
42.55254101753235,-3.1067145643735703,0.08948455121499463,-4.70524851286997
42.6224160194397,-3.1055363819073194,0.08786367647416675,-4.703079634478208
42.68936109542847,-3.104007194809396,0.08656219797182343,-4.7014678893864925
42.729207038879395,-3.103196262257467,0.08613361212864562,-4.700967747733776
42.77765703201294,-3.102534200410473,0.08596252899574325,-4.700812751758333
42.8505699634552,-3.1013339137071743,0.08635488752571757,-4.701267619672519
42.88610506057739,-3.100954945884056,0.08694631734717533,-4.701905180437484
42.953938007354736,-3.10073656667467,0.08782443645998012,-4.70279201308048
43.02122116088867,-3.1007781119876747,0.0901254409313222,-4.704901236663823
43.091850996017456,-3.1014723980838586,0.09284613462332555,-4.707044548709119
43.12932205200195,-3.101989051335334,0.09423229332595498,-4.707979850883954
43.20030117034912,-3.102503307741828,0.09558298205181592,-4.7087436454845895
43.271666049957275,-3.1036308901473677,0.09784481308799862,-4.709609705471083
43.343204975128174,-3.1045182554225823,0.09954887000099945,-4.709693861361529
43.41106700897217,-3.105049822376162,0.10058184360881393,-4.709141521751447
43.44675302505493,-3.1051342445827173,0.10105810003550417,-4.708914620426572
43.48712205886841,-3.1051001561207645,0.10130931935008271,-4.708469339892311
43.52703094482422,-3.105183246746775,0.10147657418891809,-4.708059745716657
43.5945930480957,-3.1050788508320437,0.10155680191675673,-4.707607540963561
43.67301917076111,-3.104919860114966,0.10165905065785896,-4.706901270642472
43.74297595024109,-3.104817594729107,0.10163202789517306,-4.706299396236115
43.81688904762268,-3.1046093355318627,0.10161386846549009,-4.705839734631967
43.886216163635254,-3.104511863835966,0.10164590962235509,-4.705544123750968
43.92096209526062,-3.104506803829895,0.10167459686072229,-4.705445586790635
43.98984694480896,-3.1045073364621127,0.10166619125853173,-4.705320950851619
44.062565088272095,-3.104389358425822,0.10175906900154824,-4.705197912809258
44.13181805610657,-3.104286294091636,0.10186533745142082,-4.705192586487078
44.16732096672058,-3.1042362266631427,0.10192812147411943,-4.705223479155722
44.23490309715271,-3.104189355027957,0.10196860984506705,-4.705245849708879
44.30514097213745,-3.104105731769729,0.10206916082097435,-4.705360898267971
44.373207092285156,-3.104013586396012,0.10217761805636782,-4.705500980541309
44.49366116523743,-3.1039384852532717,0.10228306259077814,-4.705633073331377
44.56399416923523,-3.1038892167731054,0.10240873882709467,-4.705779547191331
44.63651514053345,-3.1038556609433705,0.10246088685018978,-4.705801917744488
44.70764398574829,-3.103848736724536,0.10252153202163793,-4.705807776698886
44.78131413459778,-3.103883624134816,0.10255292403298724,-4.705774220869151
44.8535521030426,-3.1039302294538924,0.10256610668038313,-4.705715098692951
44.893121004104614,-3.1038732378065648,0.1026108810762101,-4.7056708902188555
44.9662549495697,-3.1039150494356793,0.10261032347685685,-4.705585136431755
45.04421806335449,-3.1038966736241576,0.10262606941680194,-4.70552761215221
45.1154100894928,-3.1039342241955277,0.10261949473786082,-4.705433336249621
45.19226813316345,-3.1039158483840064,0.10263909393900812,-4.705342788772558
45.26344299316406,-3.1038924125664136,0.10267188410992972,-4.7053012434595525
45.33115100860596,-3.1038242356425076,0.10273201329391667,-4.705311896103913
45.367671966552734,-3.1037928103416443,0.102768565179878,-4.70534225614034
45.43553805351257,-3.1037238344694114,0.10282785380364588,-4.705383801453346
45.50443911552429,-3.1036529943844156,0.1029247013211623,-4.705517492140068
45.5744891166687,-3.1036359501534387,0.10301181165594311,-4.705696989197539
45.64562106132507,-3.103535016348125,0.10314696708126464,-4.705885008370498
45.68120002746582,-3.103573632183931,0.10316867184414878,-4.705973425318689
45.75194001197815,-3.103581089034983,0.10320296004318355,-4.706049591725865
45.82214593887329,-3.1035224994910013,0.10329400686295064,-4.706155052905032
45.893707036972046,-3.103509716317769,0.1033380155999642,-4.70619340242473
46.012558937072754,-3.1034801552296694,0.10336820918882296,-4.706179021354843
46.08527994155884,-3.1034828183907592,0.10336349040026648,-4.706112442327591
46.1534481048584,-3.1035243637037646,0.10333834849510046,-4.706093267567742
46.22948598861694,-3.1034567194120766,0.10335509312045432,-4.706053852783609
46.298299074172974,-3.1034612467859297,0.10333471161573682,-4.706043200139249
46.36896896362305,-3.1033965319714407,0.10334640455739794,-4.706019231689439
46.403799057006836,-3.103384281430426,0.1033428925137104,-4.706001122194026
46.47799110412598,-3.1033850803787533,0.10333417898351879,-4.705983545330831
46.54968214035034,-3.1033853466948624,0.10331340632701617,-4.705910042084745
46.62190103530884,-3.103401059345294,0.10329198452499785,-4.705822157768773
46.69075798988342,-3.1033778898438102,0.10329795999269371,-4.705736403981672
46.76259207725525,-3.1033866782754074,0.1032980515388562,-4.705705511313027
46.83107399940491,-3.1033888088042794,0.10332377601051068,-4.7056852712887425
46.91085696220398,-3.103397597235877,0.10337101383034596,-4.705715098692951
46.990057945251465,-3.103409315144673,0.10343718506105602,-4.7057859387779475
47.06588912010193,-3.103437278336119,0.10350157530278709,-4.7058706273006115
47.1397340297699,-3.1033949340747866,0.1035967583446222,-4.705920162096887
47.26182699203491,-3.1034239625306683,0.10363865319752051,-4.705940402121172
47.33552002906799,-3.1034250277951045,0.10367452264845252,-4.7058663662428675
47.45507597923279,-3.103340072956331,0.10370630581158694,-4.7057699598114064
47.58184099197388,-3.103346730859056,0.10364759143192909,-4.705615496468182
47.6539831161499,-3.1033219634609184,0.1035993299595498,-4.70547381629819
47.77747702598572,-3.1033190339837193,0.10357090071491322,-4.705400313052104
47.89659309387207,-3.103334480318042,0.10354312893817073,-4.705347049830302
47.96823000907898,-3.103378955108246,0.10353030415304632,-4.705356637210227
48.03995704650879,-3.103378156159919,0.10353865149858804,-4.705375811970075
48.111096143722534,-3.1034263593756495,0.10353718675998849,-4.705451445745033
48.18172907829285,-3.103410646725218,0.10356814600766066,-4.7055659616719065
48.30010104179382,-3.103429821485067,0.10358319286781961,-4.705717229221824
48.371495962142944,-3.103475894171925,0.1035988139720886,-4.705976088479779
48.4444739818573,-3.1034913405062476,0.10360271716756125,-4.706053320151391
48.516194105148315,-3.103469502585309,0.10363715516940734,-4.706177423458189
48.58635210990906,-3.1034287562206306,0.10367339912736764,-4.706256253026456
48.655354022979736,-3.103432750962266,0.10367721077667781,-4.706274895154086
48.77848196029663,-3.1033829498498813,0.10369929004659026,-4.706223762461156
48.85105609893799,-3.103339540324113,0.10370441663168865,-4.706044265403685
48.91788196563721,-3.1033398066402222,0.10368924493585362,-4.705880747312754
48.98586702346802,-3.103307848707141,0.10369894882907559,-4.705793928261217
49.05460500717163,-3.1032942665855816,0.10369964790886173,-4.705620822790363
49.13026213645935,-3.1032958644822357,0.10370929354543486,-4.705469022608228
49.20076513290405,-3.1032449981054153,0.10376167459512536,-4.7053459845658665
49.239341020584106,-3.1032825486767854,0.10376286469523749,-4.705309765575041
49.31010603904724,-3.103271363400207,0.1037892716019213,-4.705283666596358
49.380255937576294,-3.103225557029458,0.10385671615652756,-4.7052671549976
49.44788908958435,-3.1031912022513954,0.1039074826648072,-4.705288992918539
49.518980979919434,-3.1031864085614336,0.10393037752780347,-4.705330538231544
49.5563850402832,-3.1031810822392534,0.10393373144630129,-4.705351843520265
49.62954306602478,-3.103202653844083,0.1039178523483017,-4.705367822486805
49.71572804450989,-3.1031797506587084,0.10390828161313423,-4.705384334085563
49.78352999687195,-3.1031573801055514,0.10388437141997235,-4.705366224590151
49.85346007347107,-3.103199990682993,0.10382532414517825,-4.705298580298463
49.92484211921692,-3.1032170349139694,0.10378743235629347,-4.705205902292528
50.04437494277954,-3.1032061159535003,0.1037688984195822,-4.705090853733437
50.115862131118774,-3.1031888054064147,0.10376484542129824,-4.704954499885624
50.18896412849426,-3.1031845443486703,0.10377064611904757,-4.7049331945969035
50.26100206375122,-3.103159510634424,0.10380229612412747,-4.704929998803596
50.33803105354309,-3.1031536516800253,0.10384231011950591,-4.7049949799341935
50.40626406669617,-3.103130215862433,0.1039047945365819,-4.705090853733437
50.479650020599365,-3.1031163674247644,0.10396466572683824,-4.70518672753268
50.51648807525635,-3.103104383199859,0.10399604941580914,-4.7052208159946325
50.58439111709595,-3.103081480014484,0.10403080366803467,-4.705242121283353
50.655457973480225,-3.103081480014484,0.10406286146965651,-4.705242653915571
50.7250030040741,-3.1030492557652942,0.10409545190349635,-4.705185129636026
50.800151109695435,-3.1030167651999956,0.1041061378373703,-4.705091918997873
50.83561611175537,-3.103003982026763,0.104106029646451,-4.705037057879417
50.90481996536255,-3.103013303090578,0.10409561002868607,-4.704997110463066
50.98035407066345,-3.1029800135769525,0.10409462798803411,-4.704929998803596
51.05255913734436,-3.1029584419721226,0.10410365776860515,-4.704922541952544
51.12570309638977,-3.1029142334980273,0.10414155787986835,-4.704984327289833
51.24824595451355,-3.1028556439540456,0.10419749258513843,-4.705091918997873
51.322715044021606,-3.102862834488989,0.10425197919656576,-4.705299645562899
51.393243074417114,-3.1028793460877475,0.10427902692638688,-4.705426944663005
51.51588702201843,-3.102932875625658,0.10427795333957245,-4.705545189015404
51.592453956604004,-3.10296456724263,0.10427548159318571,-4.70567248811551
51.66190004348755,-3.1029880030602226,0.10425618199766104,-4.705724686072876
51.72981309890747,-3.1030276841604647,0.10423145621141534,-4.705743860832724
51.79962515830994,-3.103077751588958,0.10419741768373277,-4.7057614376959185
51.873075008392334,-3.103096926348807,0.10418391878595742,-4.705751317683776
51.993765115737915,-3.1030910673944088,0.10419779219076106,-4.70571563132517
52.070286989212036,-3.1031075789931672,0.10422869318178438,-4.705633605963595
52.14181709289551,-3.1031240905919257,0.10425544130598287,-4.705569157465215
52.2142059803009,-3.1030979916132426,0.10428642552079026,-4.705538797428788
52.28737115859985,-3.1031200958502905,0.10431309042120468,-4.705514828978977
52.35609316825867,-3.1030607073579817,0.10437193795891701,-4.705524416358902
52.43022894859314,-3.1030905347621904,0.10438005227786336,-4.7055888648572815
52.46680307388306,-3.1030276841604647,0.1044195502857806,-4.705629344905851
52.51080894470215,-3.1030263525799198,0.10442633302418189,-4.7056895323464865
52.546635150909424,-3.102968295668156,0.10445844908245257,-4.705744393464942
52.6153130531311,-3.102974420938663,0.1044606878022439,-4.70580937459554
52.68248701095581,-3.1030093083489434,0.10444964400609849,-4.705946793707788
52.75251913070679,-3.102999188336801,0.10445329753021894,-4.706065570692406
52.79789614677429,-3.1030583105130005,0.10442242982870924,-4.706122029707515
52.86532497406006,-3.103059642093546,0.10441254284316231,-4.706215240345668
52.9351110458374,-3.103069762105688,0.10439950999857775,-4.706251991968712
53.004887104034424,-3.103068963157361,0.10438104264089372,-4.706305255190513
53.08005499839783,-3.1030503210297304,0.10436662828149368,-4.706344137342428
53.16096615791321,-3.103044728391441,0.10434910135256958,-4.706370768953328
53.23213195800781,-3.1029643009265206,0.10436387357424112,-4.70636224683784
53.26758694648743,-3.102974420938663,0.10434728707407698,-4.7063462678713
53.33756399154663,-3.102959773552668,0.10434419114930975,-4.706320701524835
53.40944314002991,-3.102870025023932,0.10436871719847371,-4.706240806692133
53.4798150062561,-3.1028777481910934,0.10435020822889765,-4.706144400260672
53.551337003707886,-3.102758971206476,0.10439936019576643,-4.706022427482746
53.586950063705444,-3.102761368051457,0.10439645568570256,-4.705971827422035
53.654711961746216,-3.1027523133037507,0.10439988450560604,-4.705929216844593
53.722761154174805,-3.1026934574436598,0.10442833039499945,-4.705861039920688
53.79578709602356,-3.1026734837354843,0.10444028133039118,-4.705840799896403
53.91363501548767,-3.1027057079846743,0.10443258313036517,-4.70586849677174
53.98387908935547,-3.1027176922095796,0.10444881176825783,-4.70594359791448
54.06078910827637,-3.102762699632002,0.10443973205341635,-4.705970762157599
54.13594698905945,-3.102802647048353,0.1044526150951896,-4.706004850619552
54.202721118927,-3.1028487197352113,0.1044718314669302,-4.705998459032935
54.28107500076294,-3.1029152987624635,0.1044882099076342,-4.705964903203201
54.35214710235596,-3.10296989356481,0.10451253621971639,-4.705896726279295
54.390718936920166,-3.1030135694066874,0.10451425895204654,-4.705847191483019
54.46350407600403,-3.1029922641179666,0.10454569257528787,-4.705796591422308
54.54080009460449,-3.1030119715100333,0.10456666496887225,-4.705678347069908
54.63005995750427,-3.103006645187853,0.10457811656155959,-4.705551047969802
54.70390510559082,-3.1030130367744695,0.10455305788017763,-4.70539072567218
54.77205014228821,-3.102975752519208,0.10455773505684207,-4.705352376152482
54.843997955322266,-3.102959773552668,0.10453312578389407,-4.705311896103913
54.91982412338257,-3.1028844060938185,0.10454025806218843,-4.705315624529439
54.996057987213135,-3.102862834488989,0.10452942232550318,-4.705349180359175
55.11964797973633,-3.1027840049207227,0.10455308284731285,-4.705373681441203
55.19233298301697,-3.1027232848478685,0.10457200793580922,-4.705359833003534
55.22724103927612,-3.1027099690424182,0.10457771708739608,-4.705334266657069
55.264440059661865,-3.102711300622963,0.10457333119397585,-4.7052969824018085
55.33473515510559,-3.1026918595470057,0.1045791651812388,-4.705247980237751
55.40439510345459,-3.102732339595575,0.10455220899758016,-4.705131866414224
55.47196006774902,-3.102705441668565,0.104558142853384,-4.70501202416517
55.511780977249146,-3.1026806742704274,0.1045680048717957,-4.7049619567366765
55.579530000686646,-3.1026931911275506,0.10456143851523297,-4.704925737745851
55.65982699394226,-3.102692924811442,0.10456557473730099,-4.7048857903295005
55.72793102264404,-3.102691593230897,0.104575320242415,-4.704898040870515
55.79908013343811,-3.102695321656423,0.1045828686396297,-4.704945977770136
55.88573503494263,-3.102703311139693,0.10458598120915373,-4.705031198925019
55.96381616592407,-3.1027174258934704,0.10457982264913292,-4.705137725368622
56.0439989566803,-3.1027294101183758,0.10457512050533325,-4.705260230778766
56.11136317253113,-3.1027445901365893,0.10457156684975367,-4.705404574109848
56.14631199836731,-3.1027933259845377,0.10455153488492924,-4.705482871045897
56.19189810752869,-3.102805842841661,0.10455188442482231,-4.705552645866456
56.22957396507263,-3.102806641789988,0.10455890018981899,-4.705615496468182
56.2992639541626,-3.102805842841661,0.10456961109082814,-4.705676749173254
56.37399506568909,-3.102847121838557,0.10458216123746515,-4.705783275616858
