Time,yaw,pitch,roll,magx,magy,magz,accelx,accely,accelz,gyrox,gyroy,gyroz
0.12818598747253418,-95.063,-2.64,4.882,-0.0059,0.2657,0.3849,-0.47,-0.8,-9.723,-1.5e-05,0.00014,-0.000299
0.20492315292358398,-95.062,-2.641,4.881,-0.0047,0.2685,0.3803,-0.484,-0.848,-9.687,-0.000341,0.000729,0.001484
0.2750129699707031,-95.06,-2.644,4.881,-0.0059,0.2699,0.3818,-0.431,-0.85,-9.758,0.000131,-9.8e-05,-0.000291
0.39833998680114746,-95.065,-2.643,4.883,-0.006,0.2698,0.3772,-0.44,-0.832,-9.715,0.000937,0.000673,0.000937
0.5313611030578613,-95.066,-2.643,4.884,-0.0058,0.2685,0.3894,-0.47,-0.829,-9.689,-0.000639,0.000512,0.000124
0.6106410026550293,-95.067,-2.643,4.884,-0.0046,0.2657,0.3895,-0.422,-0.846,-9.677,-0.000129,0.000409,0.000528
0.6801509857177734,-95.067,-2.643,4.884,-0.0058,0.2672,0.3925,-0.439,-0.833,-9.724,0.00058,-0.001372,-0.000709
0.7504379749298096,-95.063,-2.64,4.883,-0.0058,0.2685,0.3879,-0.445,-0.841,-9.751,0.001629,0.00305,3e-06
0.8240220546722412,-95.062,-2.641,4.882,-0.0072,0.2671,0.3802,-0.488,-0.799,-9.717,0.003264,-0.001255,0.000272
0.8941390514373779,-95.063,-2.643,4.883,-0.0095,0.2714,0.3892,-0.467,-0.829,-9.712,-0.000241,0.001744,0.000457
0.9638080596923828,-95.064,-2.643,4.883,-0.0048,0.2629,0.382,-0.439,-0.848,-9.708,0.000158,-0.000624,0.000301
1.0349421501159668,-95.063,-2.64,4.883,-0.006,0.2643,0.3849,-0.4,-0.823,-9.704,0.00111,0.00201,0.000525
1.0729131698608398,-95.062,-2.638,4.884,-0.0034,0.2671,0.3911,-0.48,-0.818,-9.694,-1.1e-05,0.001183,0.001072
1.1415419578552246,-95.062,-2.639,4.882,-0.0034,0.2671,0.3896,-0.496,-0.796,-9.728,-0.000116,0.000313,-0.000772
1.2135100364685059,-95.063,-2.64,4.882,-0.0083,0.2644,0.3939,-0.442,-0.838,-9.695,-0.000841,4.5e-05,0.000117
1.2814159393310547,-95.065,-2.641,4.883,-0.0083,0.2685,0.3878,-0.414,-0.877,-9.706,-0.000522,0.000102,0.000501
1.4021530151367188,-95.069,-2.639,4.882,-0.0083,0.2727,0.3847,-0.478,-0.798,-9.691,0.001564,-0.000323,0.000676
1.4764440059661865,-95.069,-2.639,4.882,-0.0046,0.2713,0.3833,-0.515,-0.827,-9.665,0.001076,-0.000417,-0.000123
1.5616869926452637,-95.069,-2.64,4.882,-0.0048,0.2643,0.3804,-0.424,-0.832,-9.716,0.000344,0.000131,0.000615
1.6312789916992188,-95.068,-2.641,4.881,-0.0058,0.2658,0.3925,-0.396,-0.835,-9.713,0.000715,0.000372,0.000719
1.7001891136169434,-95.066,-2.641,4.881,-0.0071,0.2671,0.3863,-0.468,-0.821,-9.693,-5.1e-05,-0.000124,0.00046
1.7692501544952393,-95.068,-2.641,4.88,-0.0046,0.2671,0.3895,-0.507,-0.81,-9.691,-0.001116,-0.001154,-0.000445
1.8443830013275146,-95.071,-2.642,4.878,-0.0033,0.2685,0.3926,-0.454,-0.841,-9.708,-2e-05,-0.001126,-0.000405
1.9140729904174805,-95.07,-2.642,4.878,-0.0056,0.2838,0.3861,-0.406,-0.871,-9.724,-0.000784,-0.000377,0.001368
1.9515631198883057,-95.072,-2.642,4.878,-0.007,0.2741,0.3877,-0.405,-0.84,-9.698,-0.001153,-0.000972,9.7e-05
2.020473003387451,-95.07,-2.64,4.878,-0.0069,0.2741,0.3908,-0.463,-0.799,-9.713,-0.000281,-0.000723,0.000669
2.0885331630706787,-95.066,-2.641,4.877,-0.0047,0.2671,0.3819,-0.496,-0.79,-9.718,0.000484,-0.000599,0.000981
2.1612651348114014,-95.068,-2.642,4.876,-0.0072,0.2657,0.3864,-0.462,-0.838,-9.714,-0.000636,-0.000218,0.001085
2.2811660766601562,-95.07,-2.642,4.879,-0.0071,0.2658,0.3909,-0.384,-0.845,-9.718,-0.000101,-0.000252,-0.000353
2.351886034011841,-95.073,-2.641,4.879,-0.0034,0.2671,0.3865,-0.489,-0.797,-9.697,0.002193,0.002584,0.000264
2.4284069538116455,-95.074,-2.642,4.877,-0.0058,0.2699,0.3894,-0.466,-0.794,-9.707,-0.000755,0.000762,0.000482
2.502347946166992,-95.076,-2.642,4.877,-0.0046,0.2699,0.3895,-0.417,-0.85,-9.67,0.00025,-0.000188,0.000772
2.5731940269470215,-95.075,-2.642,4.877,-0.0071,0.2699,0.3832,-0.362,-0.846,-9.73,0.000487,-0.000427,0.000734
2.6442151069641113,-95.076,-2.641,4.879,-0.0059,0.2657,0.3879,-0.459,-0.837,-9.722,0.001566,9.5e-05,-0.000223
2.7287421226501465,-95.073,-2.64,4.879,-0.0071,0.2699,0.3863,-0.522,-0.815,-9.768,0.000682,0.000144,-0.000161
2.800110101699829,-95.075,-2.642,4.879,-0.0045,0.2713,0.391,-0.442,-0.832,-9.669,9.8e-05,0.000572,-0.00016
2.9240620136260986,-95.073,-2.643,4.881,-0.006,0.2643,0.3834,-0.427,-0.812,-9.725,-0.000375,0.000261,0.000593
2.9967150688171387,-95.072,-2.642,4.88,-0.0035,0.2657,0.385,-0.46,-0.807,-9.687,-0.000256,0.0011,0.000768
3.1146621704101562,-95.066,-2.64,4.879,-0.0046,0.2671,0.3895,-0.451,-0.836,-9.732,0.00091,7.7e-05,-0.001112
3.1497960090637207,-95.065,-2.639,4.879,-0.0047,0.2671,0.3834,-0.42,-0.856,-9.714,-0.000126,0.000143,-0.000416
3.216917037963867,-95.069,-2.638,4.878,-0.0084,0.2658,0.3893,-0.414,-0.868,-9.726,-0.000177,0.000638,-0.000306
3.2866220474243164,-95.067,-2.636,4.878,-0.0072,0.263,0.3879,-0.442,-0.842,-9.723,0.000368,0.000436,-1e-05
3.3625199794769287,-95.068,-2.64,4.878,-0.0057,0.2741,0.3893,-0.512,-0.813,-9.701,0.001213,-0.001451,0.000154
3.4815189838409424,-95.07,-2.641,4.881,-0.007,0.2713,0.3878,-0.473,-0.833,-9.701,0.000351,0.001183,-0.000894
3.551558017730713,-95.069,-2.64,4.881,-0.0045,0.2699,0.391,-0.405,-0.836,-9.682,-0.00042,0.001872,0.000984
3.5965189933776855,-95.067,-2.638,4.881,-0.0033,0.2699,0.3895,-0.448,-0.82,-9.689,-0.000496,9.6e-05,0.000323
3.714385986328125,-95.067,-2.64,4.88,-0.006,0.2643,0.3849,-0.532,-0.815,-9.691,3.1e-05,-0.000856,4.5e-05
3.7884960174560547,-95.068,-2.64,4.88,-0.0096,0.2685,0.3847,-0.451,-0.835,-9.688,8.5e-05,-0.000367,0.000542
3.8566911220550537,-95.069,-2.639,4.881,-0.0047,0.2657,0.3865,-0.393,-0.841,-9.713,-0.000217,-0.000591,0.00019
3.9314510822296143,-95.073,-2.638,4.881,-0.006,0.2629,0.3865,-0.429,-0.825,-9.715,0.000416,0.000168,-0.001357
4.000369071960449,-95.071,-2.636,4.882,-0.0071,0.2672,0.3894,-0.515,-0.81,-9.682,-0.000146,0.000526,-2.7e-05
4.076635122299194,-95.071,-2.636,4.882,-0.007,0.2699,0.3909,-0.478,-0.829,-9.717,-0.000413,-0.000125,0.000623
4.194318056106567,-95.068,-2.633,4.873,-0.0071,0.2685,0.3878,-0.26,-0.777,-9.763,0.011694,0.001391,0.000997
4.266592979431152,-95.068,-2.633,4.866,-0.0046,0.2699,0.3879,-0.312,-1.0,-9.636,-0.000864,-0.003468,-0.000741
4.336838960647583,-95.059,-2.634,4.851,-0.0046,0.2685,0.3864,-0.551,-0.888,-9.679,-0.002109,0.004555,0.003748
4.40539813041687,-95.057,-2.641,4.839,-0.0071,0.2658,0.3879,-0.471,-1.114,-9.637,-0.01154,-0.009654,-0.004056
4.477283954620361,-95.051,-2.629,4.827,-0.0071,0.2658,0.3894,-0.16,-0.71,-9.77,-0.002027,0.003074,0.002648
4.600502967834473,-95.128,-2.71,4.768,-0.0084,0.2644,0.3909,-0.341,-0.756,-9.714,-0.00492,-0.017161,-0.015253
4.6717610359191895,-95.128,-2.664,4.705,-0.0059,0.2657,0.3849,-0.426,-0.758,-9.713,-0.000816,0.002446,-0.005642
4.744503021240234,-95.144,-2.649,4.708,-0.0083,0.2672,0.3893,-0.346,-0.834,-9.656,-0.001122,0.003027,-0.003389
4.821063995361328,-95.154,-2.636,4.716,-0.0071,0.2644,0.3909,-0.421,-0.813,-9.713,-0.000549,0.014094,0.004938
4.889245986938477,-95.156,-2.609,4.709,-0.0083,0.2672,0.3908,-0.428,-0.773,-9.749,0.00135,0.002693,-0.006893
4.962303161621094,-95.163,-2.6,4.731,-0.0072,0.2616,0.3895,-0.501,-0.842,-9.695,0.002322,0.010632,0.005447
5.032405138015747,-95.128,-2.505,4.704,-0.0121,0.2658,0.3846,-0.469,-0.729,-9.745,-0.006166,0.017128,0.002902
5.100306034088135,-95.129,-2.538,4.773,-0.0047,0.2657,0.385,0.059,-1.74,-9.456,0.040423,-0.013429,-0.018091
5.172906160354614,-95.07,-2.458,4.785,-0.0071,0.2672,0.3909,-0.726,-0.911,-9.657,-0.002695,0.018053,0.00869
5.246700048446655,-95.145,-2.284,4.819,-0.0072,0.2644,0.3879,-0.044,-0.972,-9.568,0.029963,0.083504,-0.065714
5.315843105316162,-95.194,-2.148,4.855,-0.0083,0.2686,0.3908,-0.402,-0.802,-9.694,0.004862,0.037667,-0.005306
5.387222051620483,-95.224,-2.07,4.917,-0.0108,0.2672,0.3861,-0.366,-0.923,-9.695,0.025263,-0.005706,-0.00967
5.50612211227417,-95.208,-1.971,4.99,-0.0108,0.27,0.3891,-1.088,-0.717,-9.901,0.020103,-0.021332,-0.003234
5.5784289836883545,-95.191,-1.936,4.954,-0.0109,0.2658,0.3862,-0.735,-0.669,-9.793,-0.007226,-0.002323,0.001087
5.646770000457764,-95.301,-1.78,5.07,-0.0145,0.2714,0.3874,-0.118,-0.621,-9.112,0.105252,0.196914,-0.153758
5.720605134963989,-95.613,-1.371,5.664,-0.0182,0.2714,0.3842,-0.048,-1.235,-9.451,0.101972,0.056288,-0.036746
5.791514158248901,-95.547,-1.256,5.791,-0.0183,0.2742,0.378,-0.269,-0.998,-9.751,0.034446,0.020001,0.040805
5.912891149520874,-95.626,-1.31,5.599,-0.0194,0.2728,0.3871,-0.025,-0.852,-9.751,-0.044161,-0.01569,0.042534
5.982135057449341,-95.408,-1.438,5.332,-0.0156,0.2798,0.3857,-0.635,-0.886,-9.628,-0.069676,-0.024114,0.035337
6.054800987243652,-95.042,-1.634,4.877,-0.0145,0.2645,0.3906,-0.357,-0.91,-9.594,-0.126171,-0.032314,0.106139
6.123492002487183,-94.394,-1.799,4.29,-0.011,0.263,0.3847,-0.205,-0.808,-9.784,-0.119583,-0.050796,0.213506
6.194259166717529,-93.969,-1.933,3.89,-0.0084,0.2602,0.3925,-0.002,-0.589,-9.853,-0.032899,-0.012678,0.064438
6.280328035354614,-93.855,-2.295,4.184,-0.0046,0.2644,0.3957,-1.425,-0.386,-8.775,0.07386,0.044177,-0.159482
6.348659992218018,-94.093,-2.157,4.327,-0.006,0.2602,0.388,-0.262,-1.072,-9.679,-0.057227,0.012922,0.036364
6.466784954071045,-93.872,-2.322,3.951,-0.0048,0.256,0.3943,-0.563,-0.517,-9.674,-0.006809,-0.014437,-0.062431
6.536144971847534,-93.988,-2.332,3.946,-0.0035,0.2588,0.3928,-0.456,-0.738,-9.765,-0.019896,-0.011408,0.006243
6.603990077972412,-94.043,-2.358,3.896,-0.0033,0.2685,0.3926,-0.51,-0.604,-9.707,-0.006224,-0.003858,-0.008689
6.680917024612427,-94.016,-2.381,3.885,-0.0023,0.2601,0.3852,-0.665,-0.598,-9.749,0.00081,-0.017062,0.001485
6.751682996749878,-94.027,-2.434,3.859,-0.0048,0.256,0.3912,-0.426,-0.563,-10.065,-0.006071,-0.01158,0.003181
6.828119993209839,-93.792,-2.451,3.91,-0.0049,0.2546,0.3867,-0.422,-0.717,-9.678,0.017548,8.7e-05,0.098759
6.9461541175842285,-93.464,-2.526,3.679,-0.001,0.2574,0.396,-0.035,-0.571,-9.882,-0.00044,-0.024274,-0.005045
7.065802097320557,-93.587,-2.542,3.681,-0.0035,0.2547,0.4004,-0.429,-0.679,-9.768,-0.019578,-0.007009,-6e-05
7.1869189739227295,-93.819,-2.555,3.651,-0.0035,0.2546,0.3943,-0.56,-0.406,-9.9,0.02458,0.012436,-0.047427
7.303995132446289,-94.365,-2.458,3.937,-0.006,0.2574,0.3942,-0.334,-0.564,-9.627,-9.6e-05,-0.042196,-0.095242
7.3410069942474365,-94.666,-2.627,3.981,-0.0034,0.2644,0.3927,-0.541,-0.553,-9.714,0.019983,-0.08579,-0.131627
7.414977073669434,-95.027,-2.902,4.091,-0.0034,0.2616,0.3927,-0.552,-0.637,-9.959,0.065915,-0.134495,-0.106829
7.48382306098938,-96.031,-4.029,4.337,0.0039,0.2614,0.3839,-0.974,-0.966,-9.714,-0.029377,-0.336,-0.257335
7.5517401695251465,-96.567,-4.742,4.29,0.0065,0.2642,0.3932,-0.32,-1.166,-9.4,-0.026576,-0.016247,0.087293
7.625421047210693,-95.473,-4.289,3.972,0.0065,0.2629,0.3932,-1.019,-0.77,-9.829,-0.051709,0.175829,0.270911
7.744311094284058,-94.534,-3.832,4.066,0.009,0.2628,0.3948,-0.409,-0.859,-9.629,0.075971,0.032149,0.068009
7.819368124008179,-94.09,-3.745,4.154,0.0065,0.2615,0.3947,-0.554,-0.78,-9.582,0.010084,0.054254,0.186765
7.890316009521484,-93.244,-3.653,3.992,0.0101,0.2586,0.3889,-0.573,-0.558,-9.788,-0.022317,0.003593,0.181883
7.962427139282227,-92.818,-3.593,3.932,0.0114,0.2586,0.3935,-0.484,-0.25,-9.808,0.004219,0.013133,0.015646
8.034312963485718,-93.251,-3.754,4.163,0.0103,0.2615,0.401,-0.157,-0.352,-9.094,0.022203,-0.081961,-0.116965
8.153990030288696,-93.509,-4.054,4.234,0.014,0.2656,0.3951,-0.786,-0.582,-9.742,-0.001123,0.006197,-0.020197
8.226707935333252,-93.603,-4.051,4.273,0.0139,0.2614,0.3921,-0.749,-0.761,-9.663,-0.000507,0.002849,-0.009319
8.295861005783081,-93.628,-4.062,4.247,0.0151,0.26,0.3937,-0.696,-0.678,-9.747,-0.009112,-0.005074,-0.008903
8.362776041030884,-93.64,-4.11,4.275,0.0176,0.2613,0.3953,0.174,-0.54,-10.742,0.089802,-0.093071,0.008174
8.435871124267578,-93.661,-4.274,4.293,0.0141,0.2711,0.3919,-0.671,-0.73,-9.678,-0.015561,-0.04634,0.025474
8.556628942489624,-93.271,-4.941,4.135,0.0225,0.2612,0.388,-0.451,-0.709,-9.888,-0.008981,-0.22127,0.096803
8.629019975662231,-92.919,-6.319,4.051,0.0338,0.2681,0.3899,-1.273,-0.654,-9.485,-0.030174,-0.268682,0.028169
8.700639009475708,-92.551,-7.538,3.701,0.046,0.2555,0.3969,-1.329,-0.515,-9.682,-0.067659,-0.276576,0.159205
8.771934032440186,-92.275,-8.769,3.729,0.0546,0.2567,0.3912,-1.247,-0.676,-9.823,0.039291,-0.343502,0.064456
8.850783109664917,-92.086,-10.591,3.977,0.067,0.2566,0.3934,-1.844,-0.633,-9.524,0.081864,-0.474869,0.076217
8.921494960784912,-92.046,-11.908,4.229,0.0781,0.262,0.3847,-2.203,-0.76,-9.48,0.088054,-0.443313,0.005968
8.991621017456055,-92.094,-14.155,4.456,0.0991,0.2631,0.3812,-2.339,-0.762,-9.392,0.006245,-0.617203,0.023113
9.064865112304688,-92.409,-17.063,4.487,0.1177,0.2657,0.3775,-2.834,-0.833,-9.163,-0.045402,-0.698035,-0.037194
9.10862398147583,-92.52,-18.032,4.416,0.1287,0.2655,0.3674,-3.043,-0.832,-9.159,-0.094032,-0.672175,-0.014572
9.182780027389526,-92.753,-21.704,3.782,0.1495,0.2569,0.3641,-3.688,-0.594,-9.072,-0.15883,-0.638126,0.009687
9.253796100616455,-92.927,-24.447,3.353,0.1696,0.259,0.3566,-4.107,-0.542,-8.914,-0.078401,-0.614746,-0.023578
9.328679084777832,-93.156,-27.079,3.342,0.1906,0.256,0.3562,-4.442,-0.451,-8.621,0.006658,-0.599403,-0.025331
9.399301052093506,-93.245,-29.558,3.461,0.2077,0.2571,0.3418,-4.735,-0.356,-8.685,0.038076,-0.572996,0.034791
9.469841957092285,-93.301,-32.133,3.753,0.2225,0.2583,0.3349,-5.286,-0.424,-8.252,0.054449,-0.601708,0.019378
9.592884063720703,-93.337,-35.34,4.063,0.2433,0.2634,0.307,-5.95,-0.405,-7.971,0.068694,-0.212515,-0.039107
9.66692304611206,-93.586,-35.889,4.545,0.2458,0.2634,0.3086,-5.645,-0.842,-7.606,0.084792,-0.14748,-0.045546
9.784487009048462,-93.546,-36.412,4.708,0.2508,0.2661,0.3088,-5.914,-0.613,-7.851,0.032183,-0.091232,-0.028507
9.821295976638794,-93.696,-36.691,4.963,0.2482,0.2661,0.3041,-5.991,-0.749,-7.602,0.038826,-0.072074,-0.031373
9.888729095458984,-93.786,-36.866,5.079,0.2507,0.2661,0.3027,-5.768,-0.653,-7.932,0.019471,-0.078375,-0.026382
9.960260152816772,-93.933,-37.303,5.268,0.2532,0.2702,0.3028,-5.722,-0.73,-7.789,-0.00102,-0.1137,-0.015836
10.03583312034607,-94.105,-37.919,5.382,0.2582,0.2688,0.3031,-5.748,-0.892,-7.72,-0.026875,-0.174996,-0.033768
10.112008094787598,-94.428,-38.902,5.456,0.2594,0.2743,0.2969,-6.186,-0.743,-7.494,-0.040584,-0.261728,-0.042638
10.234110116958618,-95.06,-40.895,5.569,0.2716,0.2685,0.287,-6.256,-0.782,-7.303,-0.036353,-0.298746,-0.034825
10.310399055480957,-95.419,-42.112,5.625,0.2765,0.2726,0.278,-6.583,-0.702,-7.208,-0.030844,-0.269306,-0.037276
10.378607988357544,-95.695,-43.281,5.797,0.2828,0.2676,0.2805,-6.742,-0.784,-6.956,-0.002259,-0.266377,0.002617
10.44567608833313,-95.844,-44.381,5.906,0.2888,0.2646,0.2702,-6.92,-0.72,-6.909,0.00087,-0.250912,0.007156
10.515947103500366,-95.949,-45.076,5.948,0.2913,0.2715,0.2641,-6.939,-0.716,-6.765,-0.019449,-0.232969,-0.009308
10.585376024246216,-96.09,-46.1,6.059,0.2987,0.2659,0.2661,-7.018,-0.806,-6.651,-0.000425,-0.237129,0.013739
10.710930109024048,-96.202,-47.829,6.128,0.3048,0.2727,0.2495,-7.257,-0.671,-6.518,-0.0045,-0.240111,0.025496
10.781074047088623,-96.176,-48.817,6.057,0.3134,0.2712,0.2469,-7.439,-0.601,-6.384,-0.018662,-0.217446,0.005876
10.851009130477905,-96.407,-49.754,6.153,0.3159,0.2725,0.247,-7.363,-0.685,-6.328,-0.0088,-0.229056,-0.006964
10.928526163101196,-96.626,-50.729,6.285,0.3181,0.2654,0.2351,-7.598,-0.684,-6.079,-0.007553,-0.219485,-0.013727
11.00093698501587,-96.828,-51.571,6.415,0.3232,0.2793,0.2321,-7.711,-0.665,-5.975,0.007067,-0.181196,-0.002748
11.070886135101318,-97.051,-52.319,6.619,0.3279,0.2695,0.2279,-7.641,-0.643,-6.022,0.013739,-0.174167,-0.004757
11.153193950653076,-97.232,-53.182,6.808,0.3316,0.268,0.2251,-7.781,-0.64,-5.843,0.011404,-0.22676,-0.01191
11.275755167007446,-97.63,-54.628,7.225,0.3338,0.2637,0.213,-8.101,-0.658,-5.505,0.018792,-0.148359,0.004818
11.344192028045654,-97.736,-55.186,7.422,0.3363,0.2664,0.2085,-8.122,-0.61,-5.527,0.045102,-0.102766,0.015194
11.415595054626465,-97.649,-55.411,7.506,0.3363,0.2678,0.2055,-8.304,-0.805,-5.299,0.035601,-0.056531,0.016324
11.483466148376465,-97.771,-55.644,7.683,0.34,0.2692,0.2072,-8.304,-0.8,-5.236,0.02193,-0.021246,-0.00328
11.553413152694702,-97.837,-55.555,7.689,0.3399,0.2691,0.2011,-8.021,-0.645,-5.489,-0.012271,0.02423,-0.025775
11.628724098205566,-97.862,-55.347,7.673,0.3364,0.2706,0.21,-7.958,-0.63,-5.603,-0.015117,0.048981,-0.002896
11.751466989517212,-97.796,-54.921,7.584,0.3363,0.2665,0.2116,-8.061,-0.592,-5.664,-0.011357,0.031744,-0.014177
11.820122957229614,-97.796,-54.611,7.559,0.3339,0.2679,0.2115,-8.153,-0.846,-5.323,-0.037177,0.138834,0.00042
11.886960983276367,-97.676,-54.191,7.279,0.3315,0.2694,0.2205,-7.961,-0.69,-5.694,-0.073104,0.14437,-0.004236
11.957878112792969,-97.541,-53.37,6.844,0.3301,0.2638,0.2159,-8.169,-0.612,-5.658,-0.075949,0.280769,-0.025974
12.031069040298462,-97.544,-51.573,6.558,0.3207,0.2738,0.232,-7.917,-0.572,-6.015,-0.061677,0.493301,-0.086638
12.153349161148071,-97.881,-47.797,6.57,0.2998,0.2658,0.2555,-6.486,-0.909,-6.836,-0.03528,0.625723,-0.043522
12.234709024429321,-97.661,-45.126,6.258,0.2853,0.2689,0.2745,-5.99,-1.015,-7.207,0.000774,0.674787,-0.000858
12.304161071777344,-97.17,-42.157,5.75,0.2693,0.2691,0.2828,-6.664,-0.625,-7.163,-0.027078,0.710277,-0.024767
12.376769065856934,-96.78,-38.892,5.373,0.2484,0.2612,0.3078,-6.2,-0.746,-7.46,-0.037429,0.802955,0.00897
12.445873022079468,-96.256,-35.245,4.82,0.2276,0.2587,0.3235,-5.713,-0.609,-7.828,-0.036783,0.932847,0.007159
12.514419078826904,-95.863,-32.518,4.481,0.2078,0.259,0.3302,-5.024,-0.56,-8.247,-0.042222,0.9256,0.046197
12.584836959838867,-95.373,-28.536,4.133,0.187,0.258,0.3474,-4.671,-0.537,-8.47,-0.010285,0.961713,0.02873
12.622657060623169,-95.046,-25.805,3.957,0.1685,0.2568,0.3556,-4.191,-0.522,-8.818,0.005391,0.922352,0.034987
12.695862054824829,-94.546,-22.117,3.925,0.137,0.2519,0.3731,-3.8,-0.547,-9.172,0.05432,0.807715,0.049143
12.767186164855957,-94.249,-20.019,4.015,0.126,0.2604,0.3739,-3.368,-0.572,-9.055,0.070382,0.706481,0.04589
12.847262144088745,-93.751,-16.297,4.181,0.1001,0.2607,0.3802,-2.772,-0.729,-9.254,0.044328,0.612993,0.026773
12.916805028915405,-93.602,-14.553,4.204,0.0853,0.2665,0.3809,-2.42,-0.659,-9.366,-0.000991,0.594579,-0.003175
12.986034154891968,-93.541,-12.082,4.309,0.0704,0.2611,0.3878,-2.147,-0.637,-9.613,0.072322,0.552023,-0.04024
13.063338041305542,-93.586,-9.654,4.554,0.0468,0.26,0.3851,-1.715,-0.619,-9.622,0.075284,0.585268,-0.056783
13.102020025253296,-93.605,-8.83,4.676,0.0421,0.2698,0.3908,-1.554,-0.716,-9.583,0.089797,0.570436,-0.056804
13.149031162261963,-93.648,-5.9,5.086,0.0184,0.2645,0.3851,-0.934,-0.946,-9.571,0.06337,0.774119,-0.049688
13.270171165466309,-93.775,0.119,4.915,-0.0311,0.2573,0.3945,-0.054,-0.754,-9.806,-0.03808,0.912865,-0.037128
13.34263300895691,-93.628,3.641,5.112,-0.0597,0.259,0.393,0.498,-0.806,-9.764,0.084135,0.7259,-0.073165
13.41022801399231,-93.65,5.677,5.514,-0.0733,0.2661,0.3876,1.051,-0.791,-9.885,0.189065,0.674614,-0.071755
13.48233699798584,-93.65,7.641,5.957,-0.0869,0.2704,0.3823,1.409,-0.934,-9.602,0.005922,0.238225,-0.033658
13.551493167877197,-93.853,8.368,5.667,-0.0969,0.265,0.3834,1.425,-0.883,-9.565,-0.094191,0.150055,-0.094951
13.669345140457153,-93.879,9.448,4.962,-0.1045,0.2581,0.3862,1.805,-0.767,-9.739,-0.074043,0.150147,0.03148
13.74098014831543,-93.636,10.062,4.715,-0.107,0.2553,0.3876,1.221,-0.642,-9.742,-0.042439,0.112503,0.01196
13.81164813041687,-93.601,10.397,4.625,-0.1094,0.2637,0.3797,1.714,-0.753,-9.585,-0.039928,0.128227,0.00073
13.880910158157349,-93.589,11.218,4.423,-0.1157,0.2526,0.3872,1.44,-0.901,-9.446,-0.066543,0.265696,-0.035718
13.953258991241455,-93.618,12.841,4.055,-0.1269,0.25,0.3882,1.983,-0.595,-9.558,-0.088832,0.452179,-0.008815
14.072011947631836,-93.372,15.812,3.64,-0.1482,0.2488,0.3795,2.506,-0.633,-9.405,-0.058409,0.410731,0.027976
14.142531156539917,-93.124,17.775,3.419,-0.1636,0.2415,0.371,2.862,-0.477,-9.275,-0.068532,0.496934,0.031681
14.264033079147339,-92.794,20.823,3.072,-0.1859,0.2404,0.3745,3.48,-0.377,-9.121,-0.076835,0.54396,-0.000549
14.387948989868164,-92.517,24.358,2.83,-0.2073,0.228,0.3675,4.147,-0.364,-8.823,-0.008391,0.448575,0.029528
14.456695079803467,-92.334,26.325,2.927,-0.2185,0.2323,0.3623,4.298,-0.439,-8.794,0.009605,0.46852,0.017995
14.528304100036621,-92.132,28.448,3.082,-0.236,0.2338,0.3537,4.522,-0.453,-8.507,0.002403,0.51613,0.003399
14.597381114959717,-91.969,30.755,3.163,-0.2485,0.2339,0.3439,4.954,-0.449,-8.344,0.007479,0.548358,0.01268
14.66948914527893,-91.861,32.292,3.213,-0.2599,0.227,0.3373,5.343,-0.452,-8.176,-0.011924,0.516002,-0.011299
14.745530128479004,-91.931,35.044,3.013,-0.2811,0.2327,0.3239,5.832,-0.409,-7.891,-0.027304,0.438327,-0.043839
14.782413005828857,-91.966,35.656,2.946,-0.2812,0.2244,0.3241,5.816,-0.436,-7.9,-0.034923,0.415079,-0.039659
14.822962045669556,-92.054,36.828,2.821,-0.2912,0.2244,0.319,6.027,-0.329,-7.832,-0.018355,0.399301,-0.049033
14.861199140548706,-92.109,37.399,2.767,-0.2913,0.2243,0.3128,5.988,-0.295,-7.772,-0.006414,0.395942,-0.050899
14.906639099121094,-92.22,38.529,2.697,-0.3024,0.2286,0.3107,6.049,-0.252,-7.608,0.004677,0.394456,-0.050693
15.025645017623901,-92.43,41.364,2.663,-0.3124,0.2356,0.2948,6.454,-0.317,-7.332,0.013411,0.394303,-0.036054
15.098781108856201,-92.558,43.113,2.576,-0.3227,0.2203,0.2884,6.73,-0.316,-7.138,-0.007776,0.416218,-0.036751
15.170441150665283,-92.581,44.946,2.515,-0.3367,0.2175,0.2695,6.764,-0.262,-6.893,-0.010389,0.436118,-0.019792
15.244177103042603,-92.651,46.784,2.413,-0.343,0.2162,0.2661,7.134,-0.219,-6.628,-0.005709,0.413279,-0.031881
15.313351154327393,-92.759,47.928,2.299,-0.3516,0.2246,0.2579,7.256,-0.224,-6.501,-0.012604,0.385852,-0.045571
15.385893106460571,-92.96,49.528,2.128,-0.3607,0.2093,0.2516,7.483,-0.139,-6.276,-0.00565,0.350841,-0.047414
15.504096984863281,-93.407,51.801,1.821,-0.3721,0.2079,0.2312,7.789,-0.195,-5.953,0.013473,0.281816,-0.033803
15.575788021087646,-93.502,52.556,1.778,-0.3783,0.2052,0.234,7.82,-0.092,-5.895,0.012863,0.240929,-0.024423
15.643877029418945,-93.6,53.848,1.711,-0.3835,0.2079,0.2184,7.998,-0.203,-5.721,-0.013989,0.211249,-0.015478
15.714683055877686,-93.607,54.453,1.657,-0.3848,0.2065,0.2169,8.04,-0.196,-5.666,-0.017608,0.204247,-0.007598
15.782339096069336,-93.663,55.197,1.511,-0.3897,0.2066,0.2151,8.152,-0.137,-5.526,-0.020907,0.13626,-0.009507
15.818978071212769,-93.694,55.53,1.443,-0.3922,0.2066,0.215,8.164,-0.009,-5.533,-0.0038,0.097427,-0.005259
15.888514041900635,-93.725,55.758,1.442,-0.3924,0.1982,0.2151,8.05,-0.017,-5.521,0.022129,0.064436,-0.007637
15.961158037185669,-93.845,55.987,1.477,-0.3961,0.2024,0.2087,8.313,-0.149,-5.392,0.030095,0.032771,-0.017366
16.043044090270996,-93.938,55.949,1.512,-0.3924,0.201,0.2135,8.262,-0.124,-5.454,0.009283,-0.038296,-0.002679
16.112892150878906,-93.875,55.814,1.621,-0.3924,0.201,0.2074,8.125,-0.128,-5.519,0.033548,-0.0551,0.02641
16.23334813117981,-93.109,54.807,2.867,-0.3859,0.2094,0.2198,7.915,-0.128,-5.671,0.148672,-0.223248,0.079587
16.30413794517517,-92.992,53.941,3.66,-0.3847,0.2121,0.2168,7.905,-0.397,-5.781,0.140008,-0.195749,-0.003591
16.374324083328247,-92.956,52.751,4.343,-0.3757,0.2218,0.2216,7.957,-0.671,-5.728,0.103185,-0.354857,0.039981
16.451961994171143,-92.933,50.774,4.403,-0.3669,0.2204,0.2343,7.732,-0.485,-6.086,-0.032959,-0.523665,0.039018
16.520621061325073,-92.851,48.507,4.195,-0.3567,0.2232,0.25,7.353,-0.535,-6.404,-0.114495,-0.53781,0.042275
16.587501049041748,-92.847,46.871,3.872,-0.3454,0.2176,0.266,7.201,-0.497,-6.489,-0.101297,-0.549808,0.036964
16.66161012649536,-92.569,44.061,3.617,-0.3275,0.2329,0.2834,6.972,-0.406,-6.862,-0.084592,-0.746511,0.108208
16.698836088180542,-92.463,41.864,3.383,-0.3189,0.2231,0.2931,6.632,-0.338,-7.331,-0.10032,-0.796346,0.058549
16.77216410636902,-92.434,38.366,3.211,-0.2936,0.2341,0.3125,6.181,-0.402,-7.579,-0.004332,-0.847873,0.068736
16.845170974731445,-92.322,34.685,3.314,-0.2725,0.2256,0.3244,5.608,-0.448,-8.012,0.006706,-0.863337,0.086663
16.912747144699097,-92.243,32.191,3.39,-0.2534,0.2422,0.3358,5.216,-0.456,-8.175,0.021591,-0.850711,0.06406
16.982836961746216,-92.09,28.565,3.568,-0.2261,0.2364,0.351,4.655,-0.479,-8.387,0.05753,-0.797063,0.083254
17.020620107650757,-91.994,26.485,3.671,-0.2136,0.2349,0.3593,4.494,-0.678,-8.586,-0.025028,-0.716605,0.083731
17.09146213531494,-91.822,24.401,3.612,-0.1924,0.2375,0.3634,4.068,-0.526,-8.846,-0.037691,-0.711137,0.111425
17.161949157714844,-91.504,21.467,3.584,-0.1749,0.2415,0.3658,3.532,-0.576,-8.927,-0.038835,-0.636048,0.098442
17.240435123443604,-91.26,18.002,3.467,-0.1475,0.2426,0.3778,3.034,-0.48,-9.299,-0.030101,-0.558717,0.043859
17.313347101211548,-91.285,16.475,3.419,-0.1349,0.2436,0.3875,2.795,-0.507,-9.332,-0.007116,-0.506333,0.008579
17.38308596611023,-91.45,14.816,3.404,-0.1214,0.2406,0.3822,2.656,-0.479,-9.411,0.026549,-0.307638,-0.030086
17.51096796989441,-92.042,12.385,3.599,-0.1039,0.2447,0.3891,2.084,-0.423,-9.513,0.075112,-0.384065,-0.069083
17.582972049713135,-92.434,10.731,3.903,-0.095,0.253,0.394,1.917,-0.656,-9.579,0.097263,-0.404361,-0.055913
17.621605157852173,-92.673,9.579,4.14,-0.0863,0.2556,0.3929,1.776,-0.764,-9.571,0.09771,-0.412451,-0.046538
17.65714406967163,-92.769,8.993,4.261,-0.0813,0.2597,0.39,1.606,-0.754,-9.546,0.089548,-0.413363,-0.029237
17.729302167892456,-93.018,7.268,4.554,-0.0712,0.2638,0.395,1.169,-0.819,-9.595,0.061446,-0.393642,-0.021115
17.800069093704224,-93.256,5.682,4.739,-0.0602,0.2595,0.3926,0.932,-0.836,-9.635,0.034478,-0.360375,-0.017958
17.869462966918945,-93.448,4.183,4.881,-0.0453,0.2635,0.3902,0.766,-0.828,-9.697,0.048249,-0.351669,-0.007779
17.943729162216187,-93.559,2.643,5.048,-0.0352,0.2732,0.3906,0.532,-0.863,-9.533,0.036673,-0.362364,0.002037
18.06547999382019,-93.756,0.488,5.273,-0.0179,0.2716,0.3885,0.257,-0.848,-9.654,0.045489,-0.365578,0.00303
18.14304208755493,-93.822,-0.907,5.427,-0.0092,0.2729,0.3904,-0.032,-0.825,-9.534,-0.014101,-0.047761,0.034175
18.215718030929565,-93.654,-0.968,5.367,-0.0116,0.2771,0.3887,0.047,-0.965,-9.507,-0.027268,0.015308,0.069062
18.28346014022827,-93.398,-1.002,5.17,-0.008,0.2701,0.3905,-0.476,-0.974,-9.52,-0.089095,-0.046672,0.020283
18.361871004104614,-93.529,-1.556,4.222,-0.0056,0.2645,0.3938,-0.729,-0.986,-9.462,-0.339793,-0.171661,-0.011658
18.43074893951416,-93.326,-2.23,1.901,-0.0045,0.2478,0.4048,-0.701,-0.715,-9.438,-0.721928,-0.139273,0.123164
18.498661041259766,-92.77,-2.588,-0.423,0.0026,0.223,0.417,-0.334,0.074,-9.663,-0.832384,-0.113776,0.255858
18.5674090385437,-91.574,-2.771,-4.541,0.0083,0.1868,0.4332,-0.61,0.964,-9.734,-0.592894,0.016453,0.136556
18.635468006134033,-91.354,-2.577,-6.113,0.0081,0.1785,0.4318,-0.445,1.108,-9.651,-0.519034,0.088125,0.05054
18.707237005233765,-91.377,-2.156,-8.381,0.0042,0.1591,0.4426,-0.518,1.492,-9.518,-0.5342,0.118652,-0.020973
18.77820110321045,-91.515,-1.642,-10.929,-0.0014,0.1243,0.446,-0.395,1.717,-9.504,-0.667226,0.126883,0.00097
18.901278018951416,-91.899,-0.574,-15.932,-0.0132,0.0827,0.4598,0.001,2.717,-9.474,-0.661661,0.183599,-0.039047
18.97899293899536,-92.143,-0.014,-18.696,-0.0125,0.0562,0.4572,0.023,3.25,-9.357,-0.608714,0.125594,-0.032643
19.050387144088745,-92.463,0.421,-21.018,-0.0232,0.0354,0.4585,0.157,3.466,-9.105,-0.510114,0.120293,-0.036934
19.121251106262207,-92.533,0.711,-23.503,-0.0246,0.0218,0.4616,0.094,3.875,-8.913,-0.626169,0.035124,0.031885
19.19254994392395,-92.614,1.012,-26.332,-0.0241,-0.0152,0.4593,0.361,4.327,-8.891,-0.65523,0.080583,0.029126
19.26383399963379,-92.581,1.185,-28.108,-0.0268,-0.0302,0.4624,0.159,4.738,-8.567,-0.598069,0.05592,0.020275
19.33213210105896,-92.854,1.501,-30.379,-0.0333,-0.0506,0.4594,0.225,5.059,-8.506,-0.449895,0.147097,-0.065373
19.413108110427856,-93.503,1.942,-31.811,-0.0373,-0.0602,0.4489,0.289,5.385,-8.374,-0.146921,0.193887,-0.083029
19.4970440864563,-94.36,2.684,-32.591,-0.041,-0.0656,0.4518,0.577,5.253,-8.257,-0.151886,0.18342,-0.008323
19.57203507423401,-94.748,3.238,-33.094,-0.0486,-0.0779,0.4487,0.625,5.261,-8.124,-0.125858,0.137791,-0.028932
19.644191026687622,-95.135,3.63,-33.64,-0.0572,-0.0819,0.4483,0.558,5.415,-8.023,-0.112398,0.128036,-0.019188
19.766592025756836,-95.491,4.218,-34.391,-0.0598,-0.0901,0.4498,0.693,5.701,-8.098,-0.086928,0.073844,0.020338
19.84506607055664,-95.622,4.349,-34.735,-0.0612,-0.0942,0.4438,0.564,5.532,-7.904,-0.099855,0.041891,-0.027519
19.967466115951538,-96.056,4.378,-35.612,-0.0625,-0.101,0.4424,0.815,5.694,-7.951,-0.078414,-0.001028,-0.047239
20.090556144714355,-96.249,4.2,-36.181,-0.0564,-0.1011,0.4427,0.717,5.592,-7.95,-0.129067,0.000523,-0.039023
20.215789079666138,-96.445,3.889,-37.428,-0.0581,-0.1202,0.4399,0.724,6.071,-7.715,-0.23906,-0.032493,-0.051881
20.28943395614624,-96.482,3.753,-38.019,-0.0545,-0.123,0.4402,0.565,6.473,-7.572,-0.022547,-0.006287,-0.011152
20.362038135528564,-96.541,3.731,-38.027,-0.0583,-0.1271,0.4371,0.661,6.018,-7.649,-0.0187,-0.003714,0.00588
20.483580112457275,-96.517,3.724,-38.09,-0.0569,-0.1257,0.4431,0.535,6.034,-7.637,-0.017381,0.005555,-0.00378
20.61440896987915,-96.629,3.718,-38.906,-0.061,-0.1205,0.4393,0.689,6.043,-7.609,-0.242697,-0.01744,-0.032302
20.683289051055908,-96.64,3.581,-39.691,-0.0564,-0.1285,0.4425,0.487,7.088,-7.418,-0.04938,-0.01684,0.000674
20.75120210647583,-96.562,3.531,-39.432,-0.0585,-0.1153,0.4393,0.617,6.187,-7.572,0.071898,-0.050004,0.012991
20.823040008544922,-96.216,3.244,-38.84,-0.0562,-0.1206,0.4453,0.632,6.124,-7.718,0.189234,-0.153444,0.029211
20.892663955688477,-95.825,2.954,-38.144,-0.0549,-0.1153,0.4482,0.559,6.089,-7.745,0.273047,-0.175334,0.047245
21.011917114257812,-94.857,2.24,-35.74,-0.045,-0.093,0.4512,0.244,5.882,-8.029,0.368278,-0.088976,0.008959
21.083933115005493,-94.844,2.153,-33.419,-0.0445,-0.0692,0.4565,0.282,5.596,-8.316,0.6577,0.016964,-0.023173
21.15371298789978,-94.973,2.103,-30.194,-0.0473,-0.0375,0.4616,0.265,4.959,-8.494,0.812018,0.005315,-0.0441
21.22623109817505,-95.081,1.967,-26.779,-0.0421,-0.0112,0.4643,0.307,4.473,-8.698,0.786038,-0.050249,-0.030968
21.301708936691284,-95.031,1.661,-23.617,-0.0404,0.0204,0.4595,0.157,4.1,-8.918,0.710662,-0.089046,-0.004879
21.3715500831604,-95.028,1.401,-20.472,-0.0375,0.0467,0.4578,0.137,3.587,-9.181,0.732287,-0.055249,-0.017588
21.44451403617859,-95.166,1.257,-17.414,-0.0429,0.0815,0.4565,0.115,2.863,-9.006,0.633777,0.014325,-0.0509
21.51741313934326,-95.386,1.264,-15.184,-0.0402,0.0985,0.4607,0.298,2.432,-9.297,0.430368,0.020276,-0.040751
21.636275053024292,-95.432,1.212,-12.792,-0.0421,0.1234,0.4558,0.235,2.187,-9.499,0.431766,-0.030037,-0.002062
21.70499897003174,-95.336,1.001,-10.792,-0.0407,0.1391,0.4556,-0.007,1.968,-9.56,0.516095,-0.040088,-0.000361
21.7740740776062,-95.331,0.891,-8.45,-0.0379,0.1665,0.4496,0.06,1.471,-9.701,0.570212,-0.019632,-0.002761
21.846729040145874,-95.351,0.849,-6.086,-0.0389,0.1796,0.4407,0.215,1.025,-9.761,0.54139,-0.011581,0.01505
21.9150710105896,-95.257,0.755,-4.435,-0.041,0.1927,0.439,0.144,0.817,-9.754,0.609554,-0.044037,0.027678
22.040569067001343,-94.828,0.119,0.448,-0.0288,0.2356,0.4245,-0.185,0.179,-9.77,0.735234,-0.106408,0.079958
22.11116313934326,-94.581,-0.143,3.646,-0.03,0.262,0.4126,-0.107,-0.688,-9.563,0.671146,-0.042712,0.055367
22.18904399871826,-94.414,-0.25,6.301,-0.0263,0.2802,0.3981,-0.083,-1.092,-9.571,0.556119,0.010093,0.026692
22.261796951293945,-94.212,-0.296,8.661,-0.0262,0.2984,0.3835,-0.125,-1.473,-9.578,0.566078,-0.017419,0.045767
22.301063060760498,-94.129,-0.399,10.24,-0.0258,0.3232,0.3759,-0.133,-1.659,-9.729,0.552481,-0.044924,0.028047
22.37518310546875,-94.123,-0.612,12.745,-0.0222,0.3336,0.3688,-0.169,-1.962,-9.65,0.623831,-0.054858,0.010186
22.449648141860962,-94.156,-0.825,15.691,-0.0234,0.3479,0.347,-0.152,-2.572,-9.318,0.695487,-0.053656,0.004246
22.528324127197266,-94.204,-1.083,18.945,-0.0208,0.3818,0.3251,-0.252,-3.263,-9.015,0.744059,-0.064202,-0.00288
22.60285997390747,-94.273,-1.209,21.024,-0.0197,0.3856,0.3122,-0.285,-3.57,-8.919,0.715463,-0.027201,-0.009596
22.67453694343567,-94.348,-1.25,24.643,-0.0172,0.4026,0.2874,-0.407,-4.05,-8.746,0.607272,0.006487,-0.01905
22.74713397026062,-94.432,-1.256,27.003,-0.0161,0.4141,0.2731,-0.233,-4.844,-8.751,0.495666,-0.01284,-0.010385
22.870836973190308,-94.201,-1.784,28.248,-0.0136,0.4308,0.2659,-0.223,-4.556,-8.777,0.128092,-0.056709,0.074694
22.94381809234619,-94.123,-2.204,28.912,-0.0125,0.4269,0.2618,-0.431,-4.643,-8.52,0.160307,-0.083374,0.046748
23.011559009552002,-94.11,-2.39,29.395,-0.008,0.4306,0.2521,-0.47,-4.229,-8.87,0.206066,-0.01735,0.045277
23.08166813850403,-93.909,-2.598,31.005,-0.0068,0.4409,0.2421,-0.449,-4.634,-8.645,0.503632,-0.039657,0.059851
23.150498151779175,-94.019,-2.833,33.318,-0.0081,0.4498,0.2235,-0.589,-5.439,-7.943,0.517635,-0.058317,-0.025694
23.267524003982544,-94.08,-2.93,35.757,-0.0081,0.4638,0.2021,-0.553,-5.884,-7.719,0.322288,0.0181,0.026519
23.33671498298645,-93.866,-2.952,36.991,-0.0014,0.465,0.1898,-0.626,-5.875,-7.71,0.269815,0.032461,0.046706
23.405863046646118,-93.676,-2.97,38.197,-0.0012,0.4842,0.1739,-0.655,-6.103,-7.584,0.283402,0.01927,0.018663
23.47848105430603,-93.56,-2.98,39.404,-0.0026,0.4803,0.1655,-0.511,-6.278,-7.427,0.268871,0.010339,0.027847
23.549997091293335,-93.393,-3.024,40.49,-0.0028,0.4815,0.1513,-0.555,-6.388,-7.314,0.235868,0.016855,0.038655
23.62182307243347,-93.233,-3.081,41.474,-0.0007,0.4733,0.154,-0.603,-6.558,-7.211,0.22354,0.004712,0.03826
23.65829610824585,-93.191,-3.108,41.78,0.0014,0.4745,0.1486,-0.642,-6.582,-7.136,0.20579,0.004923,0.031575
23.704939126968384,-93.101,-3.154,42.369,0.0015,0.4807,0.1417,-0.553,-6.552,-7.207,0.216856,0.011551,0.045637
23.832476139068604,-92.824,-3.284,44.08,0.0057,0.4805,0.1255,-0.629,-6.881,-6.841,0.224206,0.004803,0.021346
23.90377712249756,-92.749,-3.301,44.941,0.0055,0.4817,0.1145,-0.601,-6.869,-6.901,0.190158,0.019947,0.020914
23.94291400909424,-92.706,-3.304,45.213,0.0078,0.4842,0.1187,-0.571,-6.942,-6.845,0.190507,0.018159,0.025232
24.06745409965515,-92.586,-3.36,46.697,0.0065,0.4841,0.1022,-0.597,-6.997,-6.691,0.228583,-0.001415,0.002998
24.140486001968384,-92.562,-3.379,47.753,0.0052,0.4865,0.0898,-0.624,-7.177,-6.603,0.263859,0.01004,0.01181
24.217880964279175,-92.535,-3.375,48.854,0.0095,0.4913,0.0722,-0.605,-7.411,-6.319,0.242113,0.004798,-0.003833
24.27151393890381,-92.546,-3.328,49.799,0.0107,0.5,0.0653,-0.584,-7.438,-6.262,0.205239,0.005143,-0.011051
24.340110063552856,-92.558,-3.316,50.387,0.0095,0.4913,0.0681,-0.616,-7.532,-6.158,0.197951,-0.003683,-0.002287
24.407143115997314,-92.59,-3.313,51.233,0.0082,0.4937,0.0557,-0.586,-7.676,-6.043,0.1917,-0.006806,-0.007758
24.481290102005005,-92.625,-3.326,52.025,0.0082,0.4974,0.0488,-0.524,-7.734,-5.947,0.1715,-0.009963,0.000676
24.553377151489258,-92.634,-3.35,52.762,0.0102,0.4911,0.0422,-0.559,-7.718,-5.892,0.167644,-0.002854,0.006625
24.63146996498108,-92.609,-3.402,53.462,0.0112,0.4886,0.0354,-0.555,-7.917,-5.743,0.144339,-0.007525,0.006906
24.700605154037476,-92.638,-3.449,53.989,0.0101,0.4948,0.0298,-0.706,-7.979,-5.603,0.098715,-0.0,0.00725
24.780622959136963,-92.608,-3.453,54.367,0.0111,0.4935,0.023,-0.562,-7.884,-5.732,0.096898,0.004783,0.004401
24.86573314666748,-92.586,-3.497,54.914,0.0098,0.491,0.0189,-0.586,-8.057,-5.533,0.143216,-0.007363,0.013014
24.93463110923767,-92.578,-3.514,55.479,0.012,0.4909,0.0149,-0.655,-8.358,-5.186,0.092288,0.00277,-9.3e-05
24.970212936401367,-92.597,-3.5,55.487,0.0121,0.4959,0.0121,-0.578,-8.309,-5.277,-0.068732,-0.007798,-0.008469
25.03929615020752,-92.629,-3.519,55.214,0.0153,0.4933,0.0096,-0.692,-8.149,-5.454,-0.107012,-0.01228,0.004286
25.115077018737793,-92.546,-3.48,54.483,0.0134,0.5034,0.0189,-0.775,-7.931,-5.525,-0.265543,0.06359,-0.051003
25.197436094284058,-92.489,-2.879,53.287,0.0056,0.4924,0.0324,-0.366,-7.881,-5.781,-0.214485,0.062582,-0.086486
25.26497197151184,-92.503,-2.676,52.467,0.0058,0.4937,0.0419,-0.397,-7.934,-5.686,-0.381061,0.020044,-0.041392
25.334005117416382,-92.439,-2.581,50.256,0.0015,0.4876,0.0596,-0.464,-7.614,-6.028,-0.611944,0.037015,0.031684
25.374715089797974,-92.265,-2.567,48.449,0.0062,0.4902,0.0775,-0.542,-7.311,-6.323,-0.635617,0.056247,0.026921
25.414083003997803,-92.192,-2.525,47.502,0.0041,0.4853,0.0857,-0.427,-7.305,-6.356,-0.682044,0.05412,0.004779
25.449569940567017,-92.144,-2.471,46.493,0.0075,0.4828,0.0955,-0.362,-7.096,-6.685,-0.706574,0.044996,-0.008566
25.496329069137573,-92.134,-2.309,43.411,0.0011,0.4793,0.1212,-0.444,-6.754,-6.93,-0.744282,0.034424,-0.054228
25.61699414253235,-92.288,-1.893,37.082,0.0004,0.4634,0.1706,-0.464,-5.947,-7.496,-0.961463,0.049921,-0.067117
25.691066026687622,-92.365,-1.596,32.859,-0.0049,0.4437,0.2103,-0.166,-5.247,-8.199,-0.949541,0.052442,-0.014083
25.76819610595703,-92.247,-1.515,30.3,-0.0047,0.4426,0.2267,-0.166,-4.739,-8.658,-0.823441,0.034148,0.058046
25.840371131896973,-92.035,-1.318,27.223,-0.0037,0.419,0.2531,-0.129,-4.515,-8.776,-0.680799,0.077186,-0.006443
25.915898084640503,-91.866,-1.123,24.537,-0.0068,0.4154,0.2694,-0.301,-3.982,-8.87,-0.55609,0.06853,0.009745
25.984867095947266,-91.662,-0.288,22.293,-0.0116,0.3906,0.2819,-0.122,-3.982,-8.759,-0.597251,0.258773,-0.086098
26.053575038909912,-91.556,0.298,19.744,-0.0194,0.3738,0.3,0.115,-3.111,-9.342,-0.491721,0.04849,-0.003063
26.181583166122437,-91.576,0.399,17.279,-0.0194,0.3616,0.3178,0.042,-2.868,-9.265,-0.400106,0.016125,0.001132
26.250493049621582,-91.802,0.77,14.969,-0.0217,0.3517,0.3274,0.221,-2.493,-9.365,-0.417077,0.049489,-0.08759
26.32064199447632,-92.021,0.936,13.138,-0.024,0.332,0.3452,0.045,-2.226,-9.617,-0.413309,0.022169,-0.041933
26.391467094421387,-92.131,0.993,11.27,-0.0262,0.3284,0.3506,0.273,-1.872,-9.543,-0.453424,-0.020756,-0.012804
26.465659141540527,-92.17,0.971,10.0,-0.0252,0.3136,0.3631,0.155,-1.808,-9.438,-0.463514,0.004844,-0.003183
26.535372972488403,-92.099,0.955,7.769,-0.0276,0.2987,0.366,0.055,-1.183,-9.821,-0.484687,0.013353,0.027431
26.571076154708862,-92.043,1.071,6.455,-0.0266,0.2889,0.3757,0.05,-1.162,-9.587,-0.48719,0.060856,0.004581
26.640830039978027,-92.017,1.265,4.377,-0.0278,0.2765,0.384,0.321,-0.569,-9.984,-0.395761,0.017684,0.008153
26.712541103363037,-91.934,1.165,3.567,-0.0268,0.2666,0.391,0.265,-0.195,-10.228,-0.155207,-0.066594,0.040639
26.78326106071472,-91.979,0.657,3.882,-0.0257,0.2703,0.3869,0.714,-0.647,-9.94,0.152717,-0.279986,0.000461
26.854701042175293,-91.994,-1.416,4.689,-0.0114,0.2714,0.3835,0.058,-0.992,-9.745,0.204978,-0.635203,0.025043
26.891348123550415,-92.033,-2.329,4.945,-0.0047,0.2738,0.3825,-0.593,-0.848,-9.53,0.167608,-0.627073,0.015881
26.961615085601807,-92.183,-4.729,5.206,0.0108,0.281,0.3777,-0.848,-0.74,-9.705,0.014576,-0.551472,0.02035
27.041972160339355,-92.322,-7.092,5.428,0.0263,0.2883,0.3757,-0.969,-0.919,-9.716,0.028246,-0.596269,0.038517
27.112195014953613,-92.417,-9.793,5.518,0.0427,0.2831,0.3725,-1.465,-0.846,-9.618,-0.003131,-0.651338,0.041499
27.18011212348938,-92.573,-12.365,5.531,0.061,0.2823,0.3696,-1.969,-1.078,-9.423,-0.026143,-0.543907,0.013675
27.264441967010498,-92.579,-14.8,5.357,0.0755,0.2896,0.3675,-2.479,-0.878,-9.389,-0.026517,-0.580361,0.075834
27.3443500995636,-92.662,-18.206,5.29,0.0985,0.2868,0.3633,-3.027,-0.856,-9.199,-0.008109,-0.619363,0.035665
27.416319131851196,-92.733,-19.89,5.26,0.1082,0.2829,0.3585,-3.366,-0.833,-9.023,-0.032345,-0.561777,0.018522
27.536877155303955,-92.961,-23.779,5.105,0.1357,0.2838,0.3517,-4.036,-0.773,-8.758,-0.057707,-0.576014,0.042057
27.60752296447754,-93.044,-26.112,4.923,0.1476,0.2811,0.3402,-4.357,-0.571,-8.672,-0.044456,-0.533543,0.026358
27.679712057113647,-93.197,-28.209,4.868,0.1597,0.2834,0.3394,-4.592,-0.734,-8.53,-0.020231,-0.46821,0.004633
27.748855113983154,-93.299,-30.134,4.854,0.1706,0.2808,0.3346,-4.929,-0.667,-8.317,-0.005421,-0.422991,0.026688
27.822266101837158,-93.848,-31.23,5.487,0.1763,0.2956,0.3279,-4.988,-0.734,-8.343,0.125672,-0.240562,-0.12262
27.896563053131104,-94.27,-31.95,6.09,0.1772,0.2881,0.3253,-5.229,-0.889,-8.11,0.127437,-0.252686,-0.084507
27.981456995010376,-94.901,-32.999,6.909,0.186,0.2907,0.3104,-5.287,-0.951,-8.032,0.087043,-0.186184,-0.050385
28.061471939086914,-95.128,-33.634,7.306,0.1883,0.2944,0.3105,-5.318,-1.103,-8.139,0.046541,-0.141457,-0.008376
28.1149160861969,-95.172,-34.081,7.489,0.1894,0.2932,0.3173,-5.602,-1.065,-7.955,0.055784,-0.145196,0.008787
28.184690952301025,-95.269,-34.517,7.698,0.1938,0.2968,0.3094,-5.545,-1.047,-7.981,0.035376,-0.102345,0.004532
28.258466005325317,-95.269,-35.002,7.806,0.1961,0.3054,0.308,-5.572,-1.05,-7.932,0.030138,-0.124336,0.013369
28.33068013191223,-95.315,-35.473,7.935,0.1992,0.2955,0.307,-5.688,-1.119,-7.816,0.009752,-0.085342,0.002436
28.403712034225464,-95.359,-35.783,7.991,0.1992,0.3004,0.3015,-5.651,-1.053,-7.879,0.015248,-0.085059,0.010562
28.44500494003296,-95.346,-36.047,8.046,0.2035,0.2991,0.2977,-5.885,-1.03,-7.846,0.025157,-0.082972,0.015453
28.567996978759766,-95.411,-36.601,8.204,0.2047,0.2966,0.3045,-5.81,-1.184,-7.767,0.009855,-0.074185,0.001745
28.644974946975708,-95.512,-36.865,8.301,0.2024,0.3015,0.2895,-5.772,-1.217,-7.696,-0.008681,-0.040192,-0.015632
28.765114068984985,-95.603,-37.208,8.367,0.2058,0.3003,0.3005,-6.072,-1.106,-7.62,0.00267,-0.047007,-0.037358
28.83559799194336,-95.706,-37.159,8.397,0.2091,0.3027,0.2979,-5.979,-1.162,-7.646,-0.020095,0.057989,-0.010872
28.905166149139404,-95.749,-36.876,8.358,0.2048,0.2991,0.3072,-5.837,-1.242,-7.661,-0.018724,0.079048,-0.007813
28.979019165039062,-95.717,-36.423,8.276,0.2014,0.2991,0.303,-5.714,-1.056,-7.752,-0.017242,0.113333,-0.026075
29.056384086608887,-95.599,-35.586,7.989,0.196,0.3017,0.3067,-5.835,-1.158,-7.657,-0.126245,0.30152,0.035426
29.12796902656555,-95.165,-34.258,7.182,0.1928,0.303,0.3106,-5.518,-0.834,-8.108,-0.126018,0.295187,0.017973
29.251906156539917,-95.206,-30.599,6.583,0.1698,0.291,0.3312,-5.111,-0.797,-8.389,-0.003079,0.757469,-0.146359
29.326768159866333,-95.254,-27.215,6.629,0.1491,0.2913,0.3423,-4.245,-0.945,-8.627,0.021844,0.728529,-0.04571
29.397781133651733,-94.943,-24.203,6.591,0.1316,0.294,0.3441,-4.165,-0.974,-8.776,0.015433,0.709288,-0.017942
29.464261054992676,-94.83,-22.228,6.568,0.1218,0.2905,0.3504,-3.799,-0.951,-9.041,-0.000367,0.656192,-0.06359
29.53309202194214,-94.88,-19.324,6.544,0.1033,0.2957,0.3561,-3.172,-1.116,-9.083,-0.038431,0.688845,-0.07821
29.652791023254395,-94.39,-14.247,6.238,0.0704,0.29,0.3694,-2.458,-1.041,-9.259,-0.025092,0.744633,0.012868
29.728436946868896,-93.995,-11.136,6.032,0.0518,0.2944,0.371,-1.961,-1.055,-9.389,-0.04119,0.714059,0.014096
29.802026987075806,-93.672,-8.081,5.844,0.0341,0.2848,0.3743,-1.42,-0.862,-9.65,-0.017363,0.726892,-0.01516
29.877992153167725,-93.498,-4.892,5.848,0.0133,0.2862,0.3746,-0.848,-0.94,-9.609,0.012526,0.79145,-0.068332
29.946478128433228,-93.441,-2.537,5.852,-0.001,0.2815,0.3766,-0.38,-0.965,-9.679,0.0075,0.843614,-0.057564
30.018294095993042,-93.173,2.388,5.905,-0.034,0.2781,0.3737,0.554,-0.925,-9.818,-0.008237,0.805351,-0.007991
30.090718984603882,-92.985,4.482,5.949,-0.0471,0.2771,0.3784,0.815,-1.033,-9.648,0.004348,0.686061,0.000574
30.212547063827515,-92.771,8.769,6.067,-0.0773,0.2785,0.3707,1.548,-0.954,-9.584,-0.01052,0.56386,-0.060158
30.288437128067017,-92.693,11.291,6.052,-0.0906,0.2749,0.3673,1.972,-1.053,-9.399,-0.038226,0.608042,-0.031102
30.357088088989258,-92.474,13.822,5.946,-0.1104,0.2751,0.3636,2.336,-0.997,-9.376,-0.044484,0.574352,0.004747
30.428210973739624,-92.215,16.035,5.898,-0.1214,0.2752,0.3631,2.683,-0.887,-9.38,0.01149,0.462118,-0.002706
30.496104955673218,-92.019,18.027,5.999,-0.1336,0.2716,0.3585,3.133,-0.943,-9.297,0.029434,0.437836,-0.00263
30.570286989212036,-91.806,19.771,6.03,-0.1413,0.2704,0.3554,3.472,-0.929,-9.269,-0.017427,0.355234,0.002525
30.643402099609375,-91.602,21.077,5.967,-0.1513,0.2693,0.3535,3.493,-0.906,-9.045,-0.028398,0.295701,0.006607
30.681955099105835,-91.542,21.491,5.939,-0.1557,0.2681,0.3547,3.546,-0.904,-9.008,-0.039492,0.290267,0.006682
30.750843048095703,-91.448,22.872,5.773,-0.1635,0.2632,0.349,3.772,-0.84,-8.907,-0.035246,0.346301,-0.016962
30.81969904899597,-91.419,23.973,5.714,-0.1702,0.2633,0.3446,3.883,-0.849,-8.854,-0.006424,0.404944,-0.042634
30.890514135360718,-91.52,26.144,5.746,-0.1813,0.2597,0.3387,4.341,-0.857,-8.777,0.023659,0.594552,-0.069566
30.962528944015503,-91.4,27.833,5.807,-0.1957,0.267,0.3329,4.723,-0.873,-8.68,-0.02092,0.144707,0.043725
30.99994397163391,-91.175,28.276,5.833,-0.1969,0.2609,0.3343,4.651,-0.762,-8.526,-0.033216,0.177557,0.03752
31.072201013565063,-90.974,29.04,5.691,-0.2003,0.2572,0.3342,4.472,-0.897,-8.658,-0.074377,0.195252,0.016069
31.142933130264282,-90.752,29.967,5.397,-0.2059,0.2548,0.3326,4.78,-0.908,-8.388,-0.120441,0.254916,0.031135
31.212990045547485,-90.579,30.781,5.107,-0.2103,0.2573,0.327,4.842,-0.733,-8.442,-0.127914,0.301803,0.027177
31.283456087112427,-90.249,32.13,4.686,-0.218,0.2525,0.3334,5.203,-0.614,-8.264,-0.140239,0.316791,0.051139
31.411657094955444,-89.672,34.108,4.278,-0.2269,0.2525,0.3235,5.709,-0.44,-8.026,-0.053365,0.212489,0.042561
31.482290983200073,-89.544,34.875,4.248,-0.2281,0.2488,0.3235,5.689,-0.487,-7.997,0.004199,0.151938,-0.019862
31.556550979614258,-89.677,35.453,4.19,-0.2347,0.2464,0.3218,5.605,-0.575,-7.899,-0.005811,0.12872,-0.057849
31.63579511642456,-90.083,36.127,3.853,-0.2415,0.2403,0.3176,5.66,-0.564,-7.805,-0.038012,0.17027,-0.108578
31.70473003387451,-90.601,36.822,3.315,-0.2459,0.2415,0.3133,6.066,-0.405,-7.819,-0.036291,0.129311,-0.070503
31.77838397026062,-90.727,37.128,3.15,-0.2448,0.2366,0.3188,6.188,-0.407,-7.791,-0.012975,0.013975,0.00074
31.85090208053589,-90.643,36.917,3.156,-0.2472,0.2317,0.3161,6.124,-0.429,-7.786,-0.022815,-0.106845,0.04366
31.97478699684143,-90.341,34.839,3.531,-0.2317,0.2364,0.3181,5.632,-0.086,-8.615,0.108352,-0.533344,0.055589
32.046842098236084,-90.322,32.186,4.151,-0.2193,0.2438,0.3267,5.095,-0.533,-8.156,0.13227,-0.649618,0.018429
32.118152141571045,-90.516,30.495,4.421,-0.2081,0.2499,0.3353,5.023,-0.733,-8.212,0.109745,-0.565865,-0.019979
32.1918580532074,-90.939,27.115,4.394,-0.1871,0.251,0.3458,4.552,-0.679,-8.57,-0.045729,-0.60816,-4.3e-05
32.26548194885254,-91.092,25.421,4.181,-0.1792,0.262,0.3474,4.205,-0.552,-8.804,-0.04555,-0.587894,0.0003
32.337268114089966,-91.298,23.032,3.924,-0.1637,0.257,0.3591,3.748,-0.518,-8.865,-0.028222,-0.535946,-0.018999
32.41306495666504,-91.544,20.847,3.829,-0.1504,0.2593,0.3651,3.519,-0.561,-9.151,0.023218,-0.506623,-0.021793
32.48319697380066,-91.822,18.551,3.839,-0.1384,0.2543,0.3712,3.257,-0.553,-9.269,0.019008,-0.575418,-0.019439
32.51993203163147,-91.901,17.707,3.845,-0.1328,0.2555,0.3728,3.11,-0.564,-9.32,0.023672,-0.599837,-0.010564
32.5616021156311,-92.095,15.935,3.882,-0.1207,0.2603,0.372,2.717,-0.636,-9.23,0.018566,-0.632995,-0.028118
32.59806299209595,-92.327,14.163,3.861,-0.1118,0.259,0.3792,2.327,-0.566,-9.443,0.021355,-0.613223,-0.042684
32.676064014434814,-92.705,11.851,3.837,-0.0964,0.2576,0.3814,1.922,-0.66,-9.418,0.010266,-0.474835,-0.049642
32.758496046066284,-92.934,10.043,3.752,-0.0865,0.26,0.3832,1.803,-0.705,-9.529,-0.028092,-0.403626,-0.015139
32.83005905151367,-92.974,8.133,3.505,-0.0743,0.2685,0.3823,1.592,-0.713,-9.648,-0.110832,-0.523112,0.023023
32.9013409614563,-92.786,5.354,2.772,-0.0528,0.2557,0.3934,0.927,-0.59,-9.528,-0.213947,-0.691741,0.093835
32.97838115692139,-92.428,2.663,1.193,-0.0376,0.2444,0.3957,0.138,-0.406,-9.189,-0.542569,-0.502226,0.077669
33.05043315887451,-92.227,1.297,-1.594,-0.0289,0.2333,0.4044,0.067,0.408,-9.591,-0.677876,-0.163485,0.006471
33.17465901374817,-92.485,1.16,-5.933,-0.0229,0.1876,0.4244,0.177,1.0,-9.548,-0.576823,0.070496,-0.089853
33.23581099510193,-92.768,1.332,-7.674,-0.0274,0.1778,0.4298,0.41,1.316,-9.769,-0.613445,0.051184,-0.078832
33.3049099445343,-92.936,1.337,-10.326,-0.0289,0.1544,0.4314,0.17,1.788,-9.62,-0.617468,-0.003766,-0.02927
33.372945070266724,-93.322,1.552,-12.314,-0.0323,0.1483,0.4354,0.27,2.487,-9.816,-0.17299,0.104806,-0.106247
33.44467902183533,-93.76,1.797,-12.768,-0.037,0.1298,0.4396,0.194,2.02,-9.269,-0.154672,0.082128,-0.093918
33.57063698768616,-94.443,2.834,-14.362,-0.0436,0.1286,0.4379,0.647,2.439,-9.472,-0.280109,0.201058,-0.004802
33.64720296859741,-94.575,3.342,-15.429,-0.0527,0.1114,0.4364,0.654,2.292,-9.575,-0.241264,0.035421,-0.017178
33.714970111846924,-94.718,3.349,-16.354,-0.0503,0.1018,0.4462,0.508,2.413,-9.013,-0.401787,0.014893,-0.055759
33.78455114364624,-94.915,3.32,-18.359,-0.0528,0.0869,0.445,0.742,2.904,-9.132,-0.491285,-0.005879,-0.034042
33.851317167282104,-95.038,3.264,-19.809,-0.0486,0.0733,0.4482,0.52,3.417,-8.693,-0.509702,-0.011906,-0.037939
33.925272941589355,-95.212,3.125,-22.626,-0.0546,0.0462,0.4524,0.52,3.943,-8.731,-0.467667,-0.00961,-0.030724
34.00039505958557,-95.368,3.055,-24.562,-0.0539,0.0325,0.4432,0.669,4.01,-8.651,-0.440314,-0.000575,-0.032193
34.07279014587402,-95.535,2.968,-26.553,-0.0509,0.0139,0.4477,0.49,4.303,-9.166,-0.481333,-0.002211,-0.052048
34.14950895309448,-95.691,2.902,-28.824,-0.0503,-0.012,0.4496,0.321,4.686,-8.594,-0.561843,0.012841,-0.047708
34.218388080596924,-95.858,2.783,-31.325,-0.0483,-0.0244,0.4499,0.513,5.018,-8.274,-0.591599,-0.02142,-0.041984
34.29032516479492,-95.951,2.673,-33.077,-0.0477,-0.0504,0.453,0.326,5.435,-8.068,-0.611172,-0.018096,-0.055564
34.36917304992676,-96.112,2.522,-36.538,-0.0457,-0.0768,0.4506,0.417,5.919,-7.741,-0.573686,0.00549,-0.025999
34.44402813911438,-96.229,2.509,-38.839,-0.0462,-0.0977,0.4482,0.506,6.383,-7.498,-0.489059,0.014394,-0.029816
34.515411138534546,-96.296,2.486,-40.067,-0.0476,-0.1113,0.443,0.459,6.692,-7.425,-0.377718,0.012016,-0.009275
34.638280153274536,-96.276,2.63,-41.386,-0.0478,-0.1224,0.4418,0.447,6.498,-7.231,-0.085452,0.032365,-0.002074
34.711578130722046,-96.307,2.683,-41.854,-0.0458,-0.1286,0.4407,0.465,6.403,-7.232,-0.143307,-0.003021,0.01837
34.78219509124756,-96.218,2.807,-42.349,-0.047,-0.1298,0.4339,0.445,6.931,-7.148,-0.062587,0.014191,0.031043
34.85495114326477,-96.225,2.879,-42.409,-0.047,-0.1347,0.4394,0.435,6.601,-7.176,0.004189,0.004015,-0.003117
34.92415404319763,-96.211,2.877,-42.401,-0.0459,-0.1323,0.438,0.404,6.661,-7.122,0.005396,0.001863,0.011922
34.99410104751587,-96.193,2.92,-42.375,-0.048,-0.1298,0.4379,0.516,6.641,-7.203,0.016529,0.009105,0.019074
35.03305101394653,-96.159,2.962,-42.328,-0.0458,-0.1261,0.4352,0.528,6.63,-7.15,0.015614,-0.002478,0.016849
35.15413999557495,-96.112,2.915,-42.11,-0.0469,-0.1286,0.4393,0.48,6.715,-7.241,0.064399,-0.01953,-0.003636
35.279261112213135,-95.668,2.837,-40.352,-0.0488,-0.115,0.4403,0.361,6.636,-7.667,0.50022,-0.048353,0.073604
35.34970211982727,-95.484,2.874,-37.679,-0.0482,-0.094,0.4521,0.462,6.051,-7.623,0.65541,-0.017498,-0.002226
35.4189989566803,-95.556,2.761,-34.747,-0.0488,-0.0705,0.4584,0.52,5.602,-7.894,0.711541,-0.003713,-0.036704
35.490724086761475,-95.549,2.614,-31.568,-0.0459,-0.0434,0.4648,0.445,5.272,-8.29,0.818701,-0.02424,-0.007364
35.56173896789551,-95.527,2.577,-29.181,-0.0455,-0.0175,0.463,0.336,4.998,-8.659,0.861697,-0.016443,0.004712
35.68057298660278,-95.554,2.182,-22.735,-0.0444,0.0342,0.4635,0.305,3.975,-8.945,0.897368,-0.08152,-0.054593
35.753451108932495,-95.634,1.823,-18.91,-0.0436,0.0736,0.4669,0.403,3.118,-8.973,0.83881,-0.092884,-0.020904
35.82223296165466,-95.606,1.463,-15.471,-0.043,0.0976,0.4632,0.195,2.656,-9.238,0.776298,-0.072395,-0.017228
35.861709117889404,-95.611,1.363,-14.413,-0.0417,0.1087,0.4631,0.172,2.43,-9.274,0.712879,-0.063709,-0.022373
35.90071511268616,-95.691,1.223,-12.49,-0.0393,0.1222,0.4603,0.1,2.181,-9.382,0.656492,-0.018185,-0.051124
35.93895602226257,-95.757,1.2,-11.575,-0.0415,0.1283,0.4506,0.132,1.961,-9.456,0.627166,0.002368,-0.045289
35.98635816574097,-95.849,1.225,-9.927,-0.0422,0.1443,0.4557,0.204,1.67,-9.552,0.539335,0.019205,-0.013441
36.05409502983093,-95.862,1.288,-7.565,-0.0407,0.1665,0.4541,0.277,1.186,-9.541,0.527274,0.004652,0.004197
36.12826609611511,-95.739,1.199,-5.569,-0.0405,0.1799,0.4458,0.316,1.001,-9.758,0.439512,-0.069605,0.063394
36.20139503479004,-95.401,0.877,-3.337,-0.037,0.1971,0.4416,-0.02,0.802,-9.858,0.606917,-0.072862,0.055645
36.27056813240051,-95.291,0.698,-1.47,-0.0346,0.2105,0.4348,0.055,0.315,-9.766,0.665028,-0.070364,0.020109
36.34153699874878,-95.308,0.196,2.109,-0.03,0.2399,0.417,0.042,-0.455,-9.554,0.587356,-0.072969,-0.009303
36.466248989105225,-95.185,-0.042,5.511,-0.032,0.2659,0.4097,0.077,-0.9,-9.819,0.664881,-0.019637,0.063956
36.535380125045776,-94.909,-0.218,8.77,-0.0296,0.2879,0.3933,-0.207,-1.336,-9.649,0.840582,-0.018992,0.02929
36.606080055236816,-94.865,-0.281,12.207,-0.0271,0.3185,0.3767,-0.124,-1.903,-9.6,0.807406,0.00594,-0.000206
36.680546045303345,-94.878,-0.311,15.455,-0.0293,0.3319,0.3562,-0.04,-2.583,-9.275,0.66265,-0.024163,-0.002694
36.750061988830566,-94.953,-0.436,18.191,-0.0258,0.3515,0.3439,-0.11,-3.059,-9.134,0.584654,-0.051522,-0.001573
36.8201220035553,-95.057,-0.629,20.794,-0.0258,0.3674,0.3275,-0.51,-3.28,-9.016,0.623347,-0.04884,-0.035365
36.85594415664673,-95.134,-0.674,21.7,-0.0247,0.3722,0.3167,0.138,-3.673,-9.138,0.637526,-0.065851,-0.021669
36.92836904525757,-95.333,-0.84,24.33,-0.025,0.3908,0.3049,-0.191,-4.118,-8.706,0.570984,-0.041023,-0.019843
37.00172209739685,-95.34,-0.975,26.354,-0.023,0.398,0.2888,0.319,-4.887,-8.074,0.253754,-0.041844,0.076655
37.07222509384155,-95.11,-1.207,26.989,-0.0206,0.4054,0.2887,-0.392,-4.279,-8.795,0.145447,-0.011131,0.057215
37.1433539390564,-94.835,-1.542,27.695,-0.0207,0.4078,0.282,-0.523,-4.133,-8.793,0.17211,-0.020167,0.080157
37.180444955825806,-94.739,-1.596,27.993,-0.0196,0.4114,0.2766,-0.236,-3.763,-9.245,0.254825,0.001371,0.076995
37.22006106376648,-94.578,-1.729,29.027,-0.0197,0.4126,0.2671,-0.274,-4.218,-8.965,0.438805,-0.030587,0.068902
37.25452899932861,-94.525,-1.823,29.728,-0.0173,0.4249,0.2657,-0.26,-4.383,-8.84,0.522002,-0.043602,0.06216
37.326534032821655,-94.5,-2.122,32.13,-0.0163,0.4358,0.244,-0.415,-5.256,-8.175,0.555974,-0.047805,0.019403
37.40869212150574,-94.429,-2.31,34.282,-0.0122,0.4393,0.2226,-0.479,-5.835,-7.701,0.42218,-0.006051,0.03057
37.48009896278381,-94.311,-2.347,35.742,-0.0111,0.4454,0.2118,-0.53,-5.717,-7.881,0.293809,0.02126,0.022918
37.55010104179382,-94.268,-2.338,36.954,-0.011,0.4527,0.2076,-0.505,-5.94,-7.718,0.264187,0.003347,-0.001085
37.62808012962341,-94.215,-2.335,38.096,-0.009,0.4526,0.197,-0.454,-6.021,-7.638,0.269445,0.006558,0.012656
37.69595503807068,-94.139,-2.334,39.309,-0.0123,0.46,0.1886,-0.408,-6.221,-7.511,0.281403,0.010357,0.011319
37.76506495475769,-94.11,-2.307,40.104,-0.0113,0.4624,0.1765,-0.452,-6.285,-7.454,0.272861,0.015043,-0.005771
37.82066011428833,-94.069,-2.266,41.267,-0.0124,0.4697,0.1696,-0.466,-6.449,-7.313,0.25877,0.00856,0.004459
37.88851594924927,-94.072,-2.259,42.005,-0.0125,0.4697,0.1615,-0.477,-6.512,-7.258,0.257288,-0.003719,-0.005566
37.92419409751892,-94.092,-2.252,42.763,-0.0104,0.4708,0.1549,-0.397,-6.493,-7.299,0.279599,4.8e-05,-0.005532
37.994848012924194,-94.119,-2.226,44.115,-0.0079,0.4731,0.1443,-0.205,-6.95,-6.907,0.327485,0.002343,-0.008724
38.06501793861389,-94.14,-2.213,44.984,-0.0113,0.4743,0.1348,-0.408,-7.019,-6.734,0.279439,0.001534,-0.004975
38.1340069770813,-94.146,-2.16,45.97,-0.0115,0.473,0.1215,-0.381,-7.446,-6.378,0.153917,0.014774,-0.007739
38.16988205909729,-94.147,-2.124,46.156,-0.0082,0.4729,0.1216,-0.387,-7.364,-6.434,-0.010098,0.006106,-0.010631
38.21416711807251,-94.155,-2.108,46.106,-0.0113,0.4779,0.1267,-0.383,-7.151,-6.614,-0.047776,0.001624,-0.013187
38.334957122802734,-94.215,-2.068,45.508,-0.0113,0.4755,0.1294,-0.367,-7.022,-6.803,-0.101808,0.014348,0.002559
38.406705141067505,-94.133,-1.829,44.803,-0.0102,0.473,0.1362,-0.423,-6.911,-6.811,-0.215043,0.09447,-0.074275
38.477877140045166,-94.095,-1.345,43.785,-0.0134,0.4743,0.1387,-0.206,-6.685,-7.125,-0.220063,0.05897,-0.061119
38.54464602470398,-94.03,-0.977,42.138,-0.0197,0.4684,0.1585,-0.119,-6.884,-6.83,-0.586603,0.085479,-0.026588
38.61381697654724,-93.858,-0.873,40.193,-0.0206,0.4697,0.1691,-0.019,-6.451,-7.333,-0.723338,0.049783,0.061446
38.651124000549316,-93.564,-0.956,38.007,-0.0152,0.4564,0.1883,-0.117,-6.169,-7.451,-0.814135,0.040528,0.113982
38.68875503540039,-93.401,-0.996,36.783,-0.0161,0.4528,0.2003,-0.222,-5.886,-7.724,-0.876221,0.053691,0.099916
38.728188037872314,-93.086,-0.989,34.138,-0.0159,0.4517,0.2164,-0.11,-5.58,-7.77,-0.976136,0.073622,0.077995
38.79439902305603,-92.647,-0.956,29.639,-0.0137,0.4226,0.2557,-0.42,-4.691,-8.395,-1.042822,0.048929,0.092306
38.863621950149536,-92.396,-0.875,26.64,-0.0128,0.4056,0.2694,-0.006,-4.37,-8.776,-1.0525,0.041079,0.082127
38.93353009223938,-91.986,-0.76,22.421,-0.014,0.3811,0.2989,-0.208,-3.667,-8.992,-0.931135,0.117737,0.055042
38.97208499908447,-91.67,-0.502,19.786,-0.0194,0.3692,0.3188,-0.124,-3.188,-9.106,-0.899905,0.124572,0.07781
39.04064607620239,-91.353,0.122,16.438,-0.0184,0.3463,0.3418,0.493,-2.729,-9.786,-0.656017,0.140662,0.024948
39.11160206794739,-90.993,0.183,14.617,-0.0196,0.3366,0.3459,-0.026,-2.373,-9.482,-0.650113,0.024078,0.142047
39.18341112136841,-90.534,0.19,12.105,-0.0187,0.3185,0.3608,-0.24,-1.958,-9.416,-0.558444,0.042701,0.032513
39.253072023391724,-90.721,0.591,10.447,-0.0199,0.3028,0.373,0.06,-1.557,-9.779,-0.203367,0.094697,-0.110465
39.28777503967285,-90.881,0.758,10.192,-0.0241,0.3065,0.3754,0.039,-1.723,-9.576,-0.169934,0.097124,-0.14419
39.36147713661194,-91.39,1.096,9.38,-0.0274,0.2993,0.3766,0.138,-1.647,-9.494,-0.208685,0.01066,-0.080228
39.43341112136841,-91.639,1.372,8.013,-0.0307,0.2908,0.3832,0.351,-1.409,-9.606,-0.396072,0.055393,-0.027583
39.50255799293518,-91.669,1.695,6.489,-0.032,0.2787,0.3847,0.427,-1.148,-9.841,-0.338705,0.076881,-0.002475
39.5726580619812,-91.737,1.874,5.862,-0.0331,0.2751,0.3914,0.18,-0.977,-9.671,0.008539,0.073148,-0.097684
39.60720109939575,-91.862,1.99,5.832,-0.0353,0.2703,0.394,0.52,-1.26,-9.442,-0.044942,0.057469,-0.085798
39.675321102142334,-92.115,2.207,4.897,-0.0386,0.2643,0.3979,0.683,-1.122,-9.556,-0.372016,0.007454,-0.019724
39.74608397483826,-91.977,2.109,3.017,-0.0356,0.2536,0.4052,0.261,-0.194,-10.012,-0.380668,-0.0162,0.045991
39.81464600563049,-91.928,2.091,2.358,-0.0345,0.2487,0.4066,0.227,-0.082,-10.06,-0.108885,0.008597,-0.007312
39.937026023864746,-92.025,2.175,2.293,-0.0378,0.2451,0.4079,0.423,-0.401,-9.746,0.012337,0.006908,-0.004587
40.006356954574585,-92.014,2.205,2.33,-0.0377,0.2524,0.4077,0.499,-0.404,-9.745,0.003463,0.003073,0.005242
40.077763080596924,-92.041,2.184,2.377,-0.0389,0.2488,0.4064,0.365,-0.406,-9.733,0.022565,-0.007803,-0.010231
40.15120506286621,-92.049,2.152,2.464,-0.0356,0.25,0.4079,0.387,-0.444,-9.661,0.014855,-0.014465,0.0047
40.21937394142151,-92.043,2.214,2.353,-0.0411,0.2464,0.4064,0.363,-0.027,-9.864,-0.012586,0.028561,-0.041392
40.29054594039917,-92.352,2.239,2.471,-0.0389,0.2512,0.4024,0.228,-0.986,-9.517,0.043967,-0.02845,-0.025041
40.324870109558105,-92.361,2.232,2.455,-0.0389,0.2488,0.4064,0.746,-0.73,-9.728,-0.049041,-0.003332,0.023866
40.393691062927246,-92.226,2.271,2.275,-0.0377,0.2488,0.4091,0.163,-0.055,-9.725,0.012287,0.017629,-0.000515
40.46259307861328,-92.267,2.268,2.419,-0.0401,0.2451,0.4038,0.128,-1.044,-9.393,-0.005499,-0.005876,0.005533
40.53243899345398,-92.187,2.278,2.387,-0.0391,0.2463,0.3972,0.292,-0.336,-9.712,0.003662,0.009033,0.011696
40.57041907310486,-92.165,2.303,2.422,-0.0388,0.2512,0.4051,0.416,-0.524,-9.727,0.013055,0.00548,0.002114
40.641380071640015,-92.169,2.303,2.442,-0.0389,0.2488,0.4051,0.561,-0.416,-9.762,0.006889,-0.006873,-0.013129
40.735414028167725,-92.192,2.283,2.429,-0.041,0.25,0.4036,0.412,-0.382,-9.742,-0.010753,-0.001717,0.003886
40.805535078048706,-92.188,2.281,2.395,-0.0378,0.25,0.4065,0.322,-0.354,-9.768,-0.009046,0.0006,0.000437
40.87814116477966,-92.209,2.278,2.398,-0.0388,0.2512,0.4064,0.398,-0.449,-9.752,0.007959,0.001793,-0.005038
40.95122694969177,-92.208,2.275,2.401,-0.0367,0.2512,0.4065,0.451,-0.381,-9.742,-0.000705,0.000353,0.006256
41.02785396575928,-92.211,2.254,2.479,-0.0378,0.2488,0.4078,0.159,-2.225,-10.271,0.07558,-0.028049,-0.000833
41.10180902481079,-92.239,2.278,2.448,-0.0367,0.2499,0.4052,0.437,-0.383,-9.913,0.04432,0.006882,-0.053423
41.175193071365356,-92.296,2.298,2.471,-0.0387,0.2597,0.4023,0.256,-0.291,-9.816,-0.025241,0.004746,0.005137
41.29828500747681,-92.308,2.29,2.534,-0.0378,0.2512,0.4038,0.269,-0.396,-9.675,0.016393,-0.008456,-0.002498
41.37003207206726,-92.282,2.301,2.563,-0.0377,0.25,0.4078,0.413,-0.31,-9.829,0.012509,0.005214,0.006684
41.41178107261658,-92.269,2.282,2.614,-0.041,0.2512,0.4049,0.288,-0.591,-9.735,0.018904,-0.023265,0.0089
41.44783616065979,-92.263,2.29,2.605,-0.0379,0.2499,0.3998,0.338,-0.105,-9.783,0.000242,0.009184,-0.000911
41.514644145965576,-92.287,2.323,2.613,-0.0388,0.2512,0.4077,0.307,-0.617,-9.69,-0.016745,0.024026,-0.009543
41.583229064941406,-92.289,2.381,2.562,-0.0401,0.2487,0.3971,0.393,-0.494,-9.751,0.001014,0.006097,0.002248
41.65305209159851,-92.292,2.371,2.563,-0.0366,0.2524,0.4078,0.376,-0.358,-9.754,-0.001833,-0.00572,-0.002068
41.69201707839966,-92.295,2.369,2.544,-0.041,0.2536,0.4036,0.146,-0.16,-9.747,-0.000179,0.025049,-0.003365
41.73037099838257,-92.288,2.381,2.548,-0.0422,0.25,0.4009,0.197,-0.442,-9.676,-0.00455,0.004044,0.004294
41.765053033828735,-92.276,2.393,2.54,-0.0399,0.25,0.405,0.421,-0.312,-9.769,-0.003679,0.007437,0.008792
41.84085702896118,-92.254,2.418,2.553,-0.0411,0.2512,0.397,0.456,-0.395,-9.761,0.010799,-0.00175,-0.007624
41.91170907020569,-92.284,2.399,2.578,-0.0399,0.25,0.4063,0.456,-0.412,-9.754,0.003656,0.00029,-0.001885
41.9835741519928,-92.285,2.42,2.591,-0.0411,0.2487,0.3997,0.568,-0.289,-9.787,0.009309,0.004656,-0.000841
42.05362415313721,-92.317,2.397,2.663,-0.041,0.2536,0.4036,0.412,-0.594,-9.732,0.005831,-0.002561,0.002688
42.128292083740234,-92.313,2.36,2.747,-0.0399,0.2524,0.4076,0.354,-0.648,-9.675,0.033722,-0.013058,0.004686
42.16400194168091,-92.301,2.333,2.791,-0.0388,0.2536,0.4024,-0.181,-1.53,-10.453,0.036672,-0.033315,0.009194
42.236145973205566,-92.235,2.364,2.722,-0.0421,0.2536,0.4022,0.362,-0.296,-9.758,-0.010967,0.010078,0.006885
42.30431914329529,-92.189,2.376,2.682,-0.0399,0.2512,0.405,0.749,-0.205,-9.788,0.009862,0.012022,0.009266
42.37825894355774,-92.193,2.362,2.702,-0.0409,0.2536,0.4062,0.281,-0.222,-9.77,0.020735,-0.000245,-0.003633
42.44866394996643,-92.2,2.336,2.747,-0.0388,0.2524,0.405,-0.34,-0.641,-9.593,0.005876,-0.016638,-0.004907
42.485610008239746,-92.191,2.348,2.712,-0.0421,0.2512,0.4036,0.282,-0.879,-9.558,-0.05412,0.013619,0.012334
42.553075075149536,-92.208,2.394,2.631,-0.0398,0.2561,0.4062,0.501,-0.37,-9.759,0.011646,0.000473,-0.017496
42.62281608581543,-92.244,2.402,2.656,-0.0421,0.2548,0.4022,0.514,-0.35,-9.771,-0.002541,0.001365,-0.004743
42.68994402885437,-92.237,2.436,2.683,-0.041,0.25,0.405,0.507,-0.448,-9.732,0.016107,0.021313,0.005751
42.72957110404968,-92.234,2.442,2.691,-0.041,0.2512,0.4023,0.201,-0.446,-9.694,0.000822,0.002841,0.003378
42.77802801132202,-92.206,2.485,2.697,-0.042,0.2536,0.4049,0.684,-0.278,-9.844,0.003246,0.003497,0.005672
42.851036071777344,-92.213,2.475,2.71,-0.0411,0.2524,0.3983,0.545,-0.493,-9.759,0.011537,-0.00524,-0.003764
42.8868510723114,-92.213,2.474,2.719,-0.041,0.2512,0.4036,0.524,-0.389,-9.789,0.005493,0.001827,0.002658
42.95439100265503,-92.206,2.481,2.729,-0.0399,0.2524,0.405,0.473,-0.473,-9.722,-0.00089,0.003059,0.001742
43.021652936935425,-92.21,2.487,2.732,-0.0431,0.2513,0.4088,0.34,-0.451,-9.723,0.001472,0.002468,0.000928
43.093050956726074,-92.213,2.493,2.735,-0.0398,0.2536,0.4076,0.403,-0.464,-9.695,0.001152,0.002882,0.00126
43.12966704368591,-92.221,2.495,2.735,-0.0422,0.2524,0.3956,0.412,-0.434,-9.716,0.001601,0.001002,0.000838
43.20089316368103,-92.249,2.498,2.737,-0.0388,0.2524,0.405,0.471,-0.482,-9.725,0.001588,-0.000621,0.000249
43.27243113517761,-92.242,2.5,2.739,-0.0421,0.2512,0.4036,0.431,-0.453,-9.767,0.00059,0.000227,0.000267
43.343698024749756,-92.236,2.502,2.74,-0.0421,0.25,0.4036,0.369,-0.435,-9.745,0.001058,0.000798,0.001134
43.411718130111694,-92.231,2.503,2.739,-0.0422,0.2488,0.3996,0.38,-0.448,-9.708,0.000793,0.000175,0.002158
43.44721508026123,-92.214,2.505,2.739,-0.0411,0.25,0.4023,0.41,-0.479,-9.728,0.000971,0.000399,-0.000557
43.487733125686646,-92.219,2.506,2.738,-0.0388,0.2536,0.405,0.419,-0.459,-9.733,-0.000231,0.001592,0.001467
43.52743411064148,-92.203,2.507,2.739,-0.041,0.2524,0.4036,0.497,-0.48,-9.722,0.000757,3e-05,0.000581
43.5950710773468,-92.189,2.51,2.737,-0.0399,0.2524,0.4023,0.449,-0.428,-9.742,-0.000621,-0.000388,0.001103
43.67360711097717,-92.18,2.512,2.737,-0.0431,0.2561,0.4034,0.374,-0.44,-9.735,0.001849,7.4e-05,0.000539
43.74357509613037,-92.175,2.514,2.737,-0.04,0.25,0.4024,0.396,-0.456,-9.715,9.5e-05,0.000265,0.000809
43.81731104850769,-92.174,2.515,2.737,-0.041,0.25,0.4076,0.42,-0.472,-9.719,0.0004,0.000531,0.000264
43.88689994812012,-92.172,2.515,2.736,-0.0421,0.2536,0.4022,0.482,-0.484,-9.777,0.001318,-0.000219,0.000521
43.92142605781555,-92.163,2.517,2.734,-0.0399,0.2524,0.4063,0.419,-0.445,-9.748,-0.001506,6e-05,0.00148
43.99032497406006,-92.157,2.518,2.732,-0.0432,0.25,0.4049,0.41,-0.459,-9.727,0.00096,-2.3e-05,0.001232
44.063148975372314,-92.158,2.516,2.73,-0.0399,0.2536,0.401,0.381,-0.432,-9.735,0.001125,0.000981,0.000709
44.13224005699158,-92.142,2.518,2.729,-0.041,0.2524,0.4063,0.444,-0.492,-9.748,0.000633,0.000533,0.000829
44.16781711578369,-92.141,2.519,2.729,-0.0422,0.2476,0.405,0.474,-0.485,-9.732,-0.000578,-6.2e-05,-0.000213
44.23538017272949,-92.136,2.52,2.727,-0.04,0.2488,0.405,0.446,-0.46,-9.717,-0.00029,0.001412,0.001966
44.30564594268799,-92.125,2.522,2.726,-0.041,0.2524,0.4023,0.406,-0.425,-9.732,-5.5e-05,0.001555,0.001218
44.373751163482666,-92.121,2.522,2.723,-0.0431,0.2537,0.4035,0.382,-0.425,-9.698,0.000544,0.000772,0.00088
44.49421405792236,-92.124,2.525,2.719,-0.0409,0.2549,0.4049,0.485,-0.465,-9.678,-0.000647,0.001446,0.001218
44.56461310386658,-92.121,2.527,2.718,-0.041,0.2524,0.4049,0.45,-0.445,-9.761,0.000348,0.002021,0.000128
44.63734006881714,-92.126,2.53,2.717,-0.042,0.2549,0.4048,0.404,-0.432,-9.742,-0.001159,0.000712,0.00148
44.708346128463745,-92.126,2.53,2.716,-0.042,0.2549,0.4048,0.387,-0.435,-9.729,-0.000148,-0.00035,0.000544
44.782310962677,-92.144,2.529,2.716,-0.041,0.2524,0.4009,0.445,-0.499,-9.736,0.001072,0.000475,0.001574
44.85394096374512,-92.141,2.533,2.716,-0.042,0.2561,0.4022,0.487,-0.477,-9.707,-0.000686,0.000181,0.001599
44.89389896392822,-92.146,2.534,2.716,-0.041,0.2512,0.4063,0.451,-0.436,-9.766,-0.00033,0.000872,0.000185
44.967419147491455,-92.144,2.534,2.714,-0.041,0.2524,0.4049,0.38,-0.429,-9.727,0.000996,0.000466,0.001292
45.044646978378296,-92.147,2.535,2.715,-0.0441,0.2549,0.4074,0.404,-0.457,-9.766,7.4e-05,0.000236,0.001429
45.11578702926636,-92.144,2.535,2.715,-0.04,0.2512,0.3997,0.459,-0.486,-9.712,0.000274,0.00141,-5.4e-05
45.19274401664734,-92.145,2.536,2.717,-0.0397,0.2633,0.4022,0.476,-0.489,-9.722,0.000565,0.001106,0.00126
45.26391816139221,-92.148,2.537,2.716,-0.0409,0.2537,0.4076,0.43,-0.429,-9.755,0.001012,0.001051,0.000771
45.33155703544617,-92.147,2.539,2.716,-0.041,0.2512,0.4076,0.376,-0.458,-9.725,-0.000112,-0.000605,0.00045
45.36816096305847,-92.144,2.54,2.716,-0.0411,0.2524,0.3956,0.395,-0.44,-9.715,0.000253,0.000901,0.000135
45.43600797653198,-92.141,2.538,2.715,-0.0399,0.2536,0.4023,0.422,-0.482,-9.752,-0.000606,-0.000496,0.001186
45.505452156066895,-92.136,2.536,2.714,-0.0421,0.2524,0.4049,0.492,-0.47,-9.733,-0.000266,0.000825,0.001714
45.57546806335449,-92.129,2.537,2.714,-0.0433,0.25,0.3996,0.428,-0.444,-9.761,0.000298,0.000107,0.001377
45.64615297317505,-92.127,2.537,2.714,-0.0388,0.2573,0.4036,0.367,-0.427,-9.748,0.000378,0.001236,0.000316
45.681703090667725,-92.125,2.536,2.714,-0.041,0.2524,0.401,0.41,-0.48,-9.725,0.000328,-0.000933,0.001792
45.75251317024231,-92.125,2.537,2.714,-0.0432,0.2512,0.4048,0.46,-0.466,-9.72,0.000863,0.001492,0.001222
45.82258105278015,-92.122,2.538,2.716,-0.0431,0.2513,0.4075,0.501,-0.483,-9.724,0.000633,0.000414,0.000193
45.894227027893066,-92.121,2.539,2.716,-0.0411,0.2524,0.3983,0.425,-0.442,-9.741,0.00106,-0.001328,0.001766
46.01322102546692,-92.127,2.537,2.715,-0.0432,0.2549,0.4008,0.393,-0.457,-9.726,-0.00037,-0.000928,0.001645
46.085817098617554,-92.12,2.537,2.717,-0.0453,0.25,0.4048,0.459,-0.445,-9.741,0.000387,0.000302,0.001486
46.15396595001221,-92.12,2.537,2.718,-0.0411,0.2524,0.3983,0.498,-0.466,-9.756,0.000173,-0.00047,0.00155
46.22981405258179,-92.121,2.537,2.718,-0.0399,0.2548,0.4036,0.451,-0.445,-9.729,-0.000141,-0.00013,0.000351
46.29861617088318,-92.12,2.538,2.717,-0.0421,0.2488,0.4049,0.368,-0.46,-9.74,-0.000777,5.7e-05,0.001742
46.36948204040527,-92.115,2.54,2.718,-0.0421,0.2512,0.4036,0.432,-0.471,-9.735,-0.000276,-7e-06,0.001371
46.40465497970581,-92.114,2.54,2.718,-0.0399,0.2524,0.405,0.45,-0.485,-9.722,0.000621,-0.000281,0.002907
46.47845196723938,-92.112,2.542,2.719,-0.0443,0.2512,0.3995,0.481,-0.479,-9.733,0.001462,0.000771,0.001351
46.550156116485596,-92.11,2.543,2.718,-0.0409,0.2573,0.4049,0.421,-0.453,-9.731,-0.000975,0.000567,0.002016
46.62240695953369,-92.11,2.543,2.718,-0.0421,0.2512,0.4049,0.395,-0.451,-9.737,0.000403,-0.000293,0.000847
46.69129705429077,-92.113,2.542,2.718,-0.0398,0.2573,0.4036,0.415,-0.469,-9.737,0.000424,-0.001427,0.001324
46.763055086135864,-92.116,2.542,2.72,-0.0421,0.2548,0.3995,0.5,-0.479,-9.739,0.000777,0.000553,-2e-05
46.831490993499756,-92.114,2.543,2.72,-0.0399,0.2548,0.401,0.458,-0.46,-9.726,-0.000747,0.000952,0.000776
46.91131806373596,-92.113,2.542,2.722,-0.0379,0.2487,0.4012,0.389,-0.435,-9.706,0.000152,0.001089,0.002012
46.99043607711792,-92.112,2.542,2.72,-0.0409,0.2573,0.4035,0.361,-0.445,-9.737,0.000579,0.000697,0.000811
47.06642007827759,-92.109,2.542,2.72,-0.0397,0.2645,0.4008,0.484,-0.499,-9.737,-0.000388,-0.000974,0.001089
47.14012908935547,-92.107,2.545,2.719,-0.0399,0.25,0.4064,0.469,-0.451,-9.725,0.00044,0.000542,0.002147
47.262333154678345,-92.107,2.545,2.719,-0.0388,0.256,0.405,0.372,-0.447,-9.714,0.000132,0.000552,0.001551
47.33604097366333,-92.108,2.545,2.719,-0.041,0.2524,0.4049,0.435,-0.473,-9.738,2.9e-05,5.1e-05,0.001518
47.45616602897644,-92.101,2.546,2.719,-0.041,0.2524,0.4009,0.47,-0.457,-9.739,0.000439,-0.000607,0.00036
47.58237910270691,-92.1,2.545,2.721,-0.0411,0.2524,0.3996,0.373,-0.439,-9.741,0.000185,0.000551,0.001101
47.65481615066528,-92.097,2.546,2.72,-0.0431,0.2561,0.4021,0.418,-0.451,-9.708,0.000963,-0.000817,0.001014
47.77802610397339,-92.092,2.547,2.722,-0.042,0.2585,0.4034,0.475,-0.497,-9.767,-0.000187,0.001123,0.001589
47.89721393585205,-92.089,2.549,2.723,-0.0422,0.2512,0.3982,0.383,-0.438,-9.733,-0.000393,0.000829,0.001725
47.968600034713745,-92.09,2.548,2.723,-0.0409,0.2561,0.4049,0.427,-0.45,-9.733,0.000632,0.000109,1e-05
48.04055404663086,-92.085,2.55,2.723,-0.042,0.2524,0.4062,0.497,-0.48,-9.749,0.000583,0.001232,0.00153
48.11154294013977,-92.082,2.55,2.724,-0.0421,0.2536,0.3995,0.482,-0.477,-9.746,0.000803,0.00089,0.000748
48.1823091506958,-92.076,2.55,2.725,-0.0398,0.2585,0.4036,0.421,-0.449,-9.72,0.001082,0.000356,0.001659
48.301077127456665,-92.077,2.55,2.725,-0.0388,0.2536,0.405,0.428,-0.474,-9.741,0.000185,0.000189,2.3e-05
48.372085094451904,-92.078,2.548,2.724,-0.0408,0.2646,0.4021,0.503,-0.471,-9.696,-0.000193,0.000947,0.000199
48.445176124572754,-92.077,2.551,2.724,-0.0421,0.2536,0.4035,0.454,-0.446,-9.742,-0.000458,0.000932,-6.4e-05
48.51701807975769,-92.076,2.552,2.723,-0.0421,0.2488,0.4063,0.363,-0.456,-9.727,-0.001649,0.000372,0.001138
48.587193965911865,-92.073,2.551,2.724,-0.0452,0.2561,0.4046,0.369,-0.441,-9.72,0.00029,-0.000633,0.001496
48.65571308135986,-92.072,2.552,2.725,-0.0411,0.2512,0.401,0.437,-0.473,-9.769,-0.000965,3.8e-05,0.002003
48.779006004333496,-92.068,2.552,2.725,-0.041,0.2536,0.4009,0.466,-0.461,-9.771,-0.001023,0.00018,0.00106
48.85139203071594,-92.067,2.552,2.725,-0.0399,0.25,0.405,0.383,-0.433,-9.781,-0.000837,-0.000282,0.000306
48.91853404045105,-92.068,2.55,2.724,-0.04,0.2548,0.397,0.4,-0.458,-9.74,-0.001316,-0.000816,0.000633
48.98644399642944,-92.067,2.55,2.725,-0.0421,0.2536,0.4022,0.449,-0.491,-9.702,0.000726,-0.000388,0.000631
49.055925130844116,-92.067,2.55,2.725,-0.0442,0.2513,0.4061,0.476,-0.492,-9.708,-4e-06,0.000801,0.001405
49.13094115257263,-92.065,2.554,2.724,-0.0431,0.2537,0.4048,0.433,-0.468,-9.719,-0.001199,3.8e-05,0.00087
49.20117902755737,-92.067,2.552,2.723,-0.0399,0.2512,0.4037,0.368,-0.445,-9.756,-0.000739,0.000611,0.001606
49.239694118499756,-92.066,2.552,2.723,-0.041,0.2548,0.3996,0.389,-0.45,-9.742,0.000255,0.000255,0.000635
49.310807943344116,-92.065,2.552,2.724,-0.0429,0.267,0.4019,0.441,-0.479,-9.742,0.000454,0.000463,-0.000533
49.38087606430054,-92.062,2.551,2.725,-0.0431,0.2513,0.4075,0.466,-0.49,-9.717,0.000102,-0.000674,0.001157
49.44876408576965,-92.062,2.551,2.724,-0.041,0.256,0.4009,0.417,-0.447,-9.717,-0.000245,0.000904,0.000159
49.51982498168945,-92.06,2.551,2.724,-0.0443,0.2512,0.4008,0.384,-0.425,-9.709,0.001696,-0.000742,0.000696
49.557027101516724,-92.061,2.55,2.725,-0.041,0.2512,0.4036,0.392,-0.46,-9.713,0.000348,-0.000934,0.00082
49.63058304786682,-92.061,2.55,2.725,-0.0431,0.2525,0.4061,0.428,-0.508,-9.723,0.001257,0.001056,-0.000491
49.716668128967285,-92.061,2.551,2.725,-0.041,0.2512,0.4049,0.51,-0.481,-9.775,-6.2e-05,0.000583,0.00138
49.784361124038696,-92.06,2.552,2.725,-0.0422,0.25,0.3983,0.411,-0.444,-9.726,0.001019,0.001345,0.000316
49.853963136672974,-92.059,2.552,2.723,-0.041,0.2512,0.4063,0.385,-0.456,-9.753,-6e-05,-0.000318,0.001595
49.925344944000244,-92.059,2.552,2.724,-0.042,0.2537,0.4049,0.417,-0.48,-9.755,0.001375,-0.000248,0.001375
50.0451021194458,-92.058,2.556,2.725,-0.0389,0.25,0.4038,0.46,-0.456,-9.726,-0.000391,0.001417,0.000948
50.1164710521698,-92.058,2.556,2.726,-0.042,0.2537,0.4049,0.395,-0.444,-9.755,0.000616,-0.001249,0.000813
50.18942403793335,-92.058,2.555,2.725,-0.0432,0.2512,0.4035,0.386,-0.441,-9.751,-0.000144,0.000573,0.001657
50.27064514160156,-92.059,2.555,2.724,-0.042,0.2609,0.4008,0.454,-0.474,-9.75,-5e-06,6.6e-05,0.000687
50.33848309516907,-92.06,2.555,2.725,-0.0411,0.2488,0.4023,0.495,-0.508,-9.759,-0.00014,-0.000109,0.001238
50.40660095214844,-92.058,2.557,2.725,-0.0388,0.2524,0.4077,0.47,-0.461,-9.714,0.000609,-0.000222,-7.2e-05
50.48007011413574,-92.058,2.558,2.725,-0.041,0.2512,0.4063,0.387,-0.445,-9.742,-0.000249,0.000345,0.001055
50.51705598831177,-92.056,2.557,2.725,-0.041,0.2524,0.4049,0.41,-0.484,-9.752,-0.000795,0.000556,0.001467
50.58476901054382,-92.056,2.558,2.726,-0.0433,0.25,0.3995,0.455,-0.477,-9.724,0.000907,-0.00029,0.000388
50.65650415420532,-92.06,2.559,2.725,-0.042,0.2524,0.4062,0.487,-0.475,-9.72,-0.000308,0.001065,0.001347
50.72552013397217,-92.059,2.559,2.726,-0.0421,0.2536,0.4009,0.431,-0.462,-9.762,-0.000664,-0.000443,0.000703
50.80064105987549,-92.058,2.56,2.727,-0.041,0.2524,0.4009,0.386,-0.481,-9.721,0.001133,0.001088,0.001337
50.836004972457886,-92.058,2.56,2.727,-0.0411,0.2524,0.397,0.373,-0.446,-9.748,0.000961,0.001106,-0.000343
50.90577697753906,-92.059,2.56,2.725,-0.04,0.2476,0.4051,0.457,-0.485,-9.719,-0.000425,-0.000642,0.000636
50.980961084365845,-92.058,2.56,2.725,-0.0399,0.2536,0.401,0.493,-0.496,-9.71,-0.000586,-0.001335,0.000299
51.05323314666748,-92.053,2.56,2.726,-0.0399,0.2512,0.405,0.448,-0.456,-9.718,0.000136,1.1e-05,0.00038
51.126157999038696,-92.057,2.56,2.724,-0.0431,0.2537,0.4048,0.374,-0.443,-9.74,0.000887,0.000919,-0.000553
51.24887299537659,-92.058,2.56,2.722,-0.0398,0.2609,0.4035,0.465,-0.459,-9.741,-0.000998,-0.00143,-0.000183
51.32329201698303,-92.055,2.56,2.721,-0.0399,0.2524,0.4023,0.458,-0.457,-9.747,-0.000445,-0.000526,8.1e-05
51.393707036972046,-92.052,2.562,2.723,-0.0387,0.2573,0.405,0.417,-0.449,-9.74,-0.000445,-0.000361,0.001812
51.51657509803772,-92.049,2.562,2.723,-0.0409,0.2537,0.4076,0.43,-0.453,-9.746,-0.001729,0.001454,0.001121
51.59330606460571,-92.045,2.561,2.724,-0.0454,0.25,0.4034,0.482,-0.49,-9.71,0.000828,-0.000483,0.000462
51.662543058395386,-92.045,2.562,2.725,-0.0431,0.2549,0.4061,0.462,-0.456,-9.749,0.001165,0.000161,-0.000267
51.73033308982849,-92.046,2.562,2.726,-0.042,0.2621,0.3994,0.395,-0.455,-9.784,-0.000191,-0.000434,0.000933
51.8002610206604,-92.043,2.562,2.727,-0.041,0.2512,0.4076,0.38,-0.461,-9.699,-0.001122,-0.000504,0.000634
51.87348508834839,-92.043,2.563,2.729,-0.0409,0.2609,0.4008,0.432,-0.482,-9.745,-0.000545,-0.000364,0.000821
51.99460411071777,-92.045,2.563,2.732,-0.042,0.2549,0.4035,0.451,-0.462,-9.739,0.000948,0.000429,0.002243
52.07071495056152,-92.046,2.563,2.732,-0.0411,0.2536,0.3983,0.387,-0.447,-9.74,0.001016,0.00015,0.00184
52.1424241065979,-92.048,2.562,2.733,-0.0421,0.2524,0.4035,0.396,-0.472,-9.701,0.000175,-0.00054,0.001314
52.21463203430176,-92.047,2.561,2.733,-0.041,0.2524,0.4023,0.483,-0.488,-9.766,4.4e-05,0.000418,0.002084
52.28775715827942,-92.045,2.561,2.733,-0.0431,0.2524,0.4048,0.501,-0.491,-9.75,-0.000459,0.001165,0.000848
52.35653805732727,-92.046,2.561,2.732,-0.0409,0.2561,0.4062,0.449,-0.459,-9.758,-0.000216,-0.001334,0.00208
52.43108916282654,-92.045,2.56,2.733,-0.0453,0.2513,0.4061,0.37,-0.431,-9.717,0.000132,-0.000247,-0.000792
52.467247009277344,-92.046,2.561,2.733,-0.0442,0.2561,0.3994,0.387,-0.464,-9.75,0.000345,0.00204,0.00118
52.51131510734558,-92.047,2.56,2.733,-0.041,0.2524,0.4009,0.418,-0.467,-9.715,0.000663,0.000185,0.001292
52.54709196090698,-92.047,2.559,2.733,-0.041,0.2512,0.405,0.472,-0.474,-9.741,0.000796,0.000905,0.001185
52.61590814590454,-92.047,2.559,2.734,-0.0409,0.2512,0.4089,0.48,-0.479,-9.725,-0.000808,0.00041,0.001238
52.683226108551025,-92.047,2.561,2.735,-0.043,0.2573,0.4047,0.445,-0.443,-9.685,-0.000536,-0.000374,3e-06
52.75288915634155,-92.046,2.561,2.734,-0.042,0.2549,0.4035,0.399,-0.442,-9.742,0.000242,-0.000178,0.000774
52.798357009887695,-92.045,2.56,2.734,-0.041,0.2548,0.4022,0.401,-0.47,-9.717,-0.000414,0.00111,0.000185
52.8673050403595,-92.041,2.558,2.736,-0.041,0.2512,0.4036,0.432,-0.502,-9.716,0.001524,0.000449,0.000853
52.93569803237915,-92.042,2.558,2.738,-0.041,0.2512,0.4063,0.475,-0.489,-9.755,-9e-06,0.001136,-0.000565
53.0060670375824,-92.04,2.559,2.738,-0.041,0.2561,0.4022,0.443,-0.433,-9.771,-0.000561,0.000515,0.000631
53.08088707923889,-92.038,2.56,2.737,-0.0441,0.2622,0.4033,0.389,-0.457,-9.713,-8.7e-05,0.000409,0.002057
53.16139316558838,-92.036,2.56,2.737,-0.0421,0.2512,0.4049,0.435,-0.488,-9.715,-0.001197,-5.1e-05,0.000862
53.23268508911133,-92.034,2.56,2.737,-0.042,0.2585,0.4021,0.494,-0.462,-9.721,0.00067,8.4e-05,-0.000754
53.26826810836792,-92.035,2.559,2.737,-0.0432,0.25,0.4035,0.481,-0.454,-9.712,-0.00086,0.000868,-0.000298
53.337881088256836,-92.035,2.559,2.737,-0.0421,0.2524,0.4049,0.439,-0.437,-9.734,0.000185,0.000194,0.000507
53.41006112098694,-92.033,2.56,2.737,-0.0442,0.2512,0.4048,0.389,-0.456,-9.708,-0.000479,0.000372,0.001056
53.480462074279785,-92.033,2.56,2.739,-0.041,0.2524,0.4036,0.406,-0.474,-9.731,0.000601,0.000822,0.000962
53.55190396308899,-92.031,2.559,2.738,-0.041,0.2536,0.4049,0.495,-0.494,-9.735,-0.000169,0.000581,0.000188
53.58746099472046,-92.03,2.56,2.739,-0.0431,0.2561,0.4008,0.486,-0.476,-9.75,0.000952,0.000709,0.00027
53.65532398223877,-92.034,2.56,2.739,-0.0377,0.256,0.405,0.419,-0.43,-9.729,0.000269,0.001036,0.000407
53.723308086395264,-92.034,2.56,2.739,-0.041,0.2524,0.4036,0.386,-0.452,-9.78,0.000728,-0.000134,0.000874
53.796178102493286,-92.032,2.559,2.74,-0.0421,0.2524,0.4049,0.436,-0.467,-9.744,0.000391,0.00033,0.001537
53.9144721031189,-92.036,2.558,2.74,-0.0409,0.256,0.4022,0.467,-0.449,-9.714,8.6e-05,-0.001319,0.000767
53.98473310470581,-92.034,2.56,2.742,-0.0453,0.2488,0.4074,0.436,-0.457,-9.748,0.000891,0.001515,0.001289
54.061517000198364,-92.036,2.561,2.741,-0.0431,0.2525,0.4075,0.385,-0.455,-9.749,0.00024,0.001285,0.000493
54.13637900352478,-92.035,2.56,2.743,-0.0442,0.2525,0.4034,0.442,-0.47,-9.744,0.000394,0.001423,0.000811
54.20325708389282,-92.036,2.561,2.742,-0.0421,0.2548,0.4009,0.476,-0.497,-9.682,-0.001155,0.000256,0.001909
54.28199005126953,-92.034,2.561,2.742,-0.0432,0.25,0.4049,0.449,-0.459,-9.71,-0.000968,0.000701,2.9e-05
54.35297203063965,-92.035,2.56,2.744,-0.042,0.2537,0.4062,0.365,-0.463,-9.753,-0.000128,5e-06,0.000441
54.39126110076904,-92.032,2.56,2.745,-0.0409,0.2549,0.4076,0.392,-0.455,-9.764,0.000797,-0.000363,0.000624
54.463972091674805,-92.035,2.56,2.745,-0.042,0.2512,0.4089,0.42,-0.483,-9.726,0.000261,-5.6e-05,0.000496
54.54193711280823,-92.034,2.561,2.744,-0.042,0.2549,0.4048,0.48,-0.507,-9.737,0.001186,0.000157,0.001511
54.63210201263428,-92.032,2.561,2.745,-0.0432,0.2524,0.4008,0.424,-0.441,-9.712,0.000712,-0.001574,0.000569
54.70445394515991,-92.031,2.56,2.746,-0.0432,0.2512,0.4048,0.382,-0.437,-9.76,0.000285,8.6e-05,0.001097
54.77249097824097,-92.031,2.558,2.746,-0.0399,0.2548,0.4023,0.448,-0.468,-9.715,-0.000498,0.000387,-0.000878
54.844736099243164,-92.029,2.558,2.746,-0.0411,0.2524,0.3983,0.516,-0.473,-9.739,0.001423,-0.000707,0.001225
54.92026400566101,-92.03,2.559,2.746,-0.042,0.2549,0.4048,0.456,-0.468,-9.747,0.000707,-0.001082,0.000377
54.99690508842468,-92.031,2.56,2.746,-0.0422,0.2524,0.3982,0.41,-0.455,-9.747,0.000294,-0.0005,0.000106
55.12012505531311,-92.029,2.562,2.744,-0.041,0.2524,0.4023,0.444,-0.459,-9.734,-0.000555,0.00038,0.000624
55.19278907775879,-92.027,2.562,2.744,-0.042,0.2512,0.4076,0.502,-0.472,-9.745,-0.000473,0.000626,0.001469
55.22797608375549,-92.027,2.563,2.743,-0.0409,0.2573,0.4035,0.466,-0.472,-9.717,-0.000218,0.000774,-0.000318
55.2649040222168,-92.027,2.564,2.743,-0.0421,0.256,0.3995,0.454,-0.461,-9.726,-0.000665,-0.000278,0.000525
55.33672499656677,-92.027,2.564,2.743,-0.0412,0.2487,0.3957,0.401,-0.434,-9.715,0.000375,0.000985,0.001728
55.40474510192871,-92.025,2.564,2.744,-0.0389,0.2499,0.4011,0.438,-0.498,-9.739,0.001173,-3.5e-05,0.001395
55.472355127334595,-92.025,2.563,2.745,-0.0421,0.2524,0.4035,0.488,-0.498,-9.737,0.0001,0.000845,0.000465
55.512181997299194,-92.025,2.563,2.745,-0.04,0.2536,0.3997,0.483,-0.474,-9.724,-0.00088,0.000196,0.000908
55.5799880027771,-92.024,2.564,2.745,-0.0421,0.25,0.4036,0.44,-0.445,-9.737,-0.000692,0.000827,0.000251
55.660253047943115,-92.026,2.562,2.745,-0.0432,0.2476,0.4049,0.371,-0.43,-9.738,-0.000367,-0.000611,0.000174
55.72859215736389,-92.025,2.56,2.745,-0.0422,0.25,0.3996,0.404,-0.466,-9.725,-0.000689,-0.000132,0.000409
55.800188064575195,-92.024,2.561,2.746,-0.0387,0.2633,0.3996,0.46,-0.484,-9.728,0.00067,-0.00099,0.001375
55.886367082595825,-92.026,2.562,2.748,-0.041,0.2512,0.4076,0.463,-0.461,-9.716,0.000647,0.000925,0.000993
55.96434307098389,-92.023,2.563,2.749,-0.042,0.2524,0.4062,0.399,-0.457,-9.725,0.000449,-0.000712,0.000732
56.044543981552124,-92.022,2.563,2.749,-0.0432,0.2488,0.4035,0.421,-0.462,-9.73,0.001095,0.000381,0.000752
56.1119339466095,-92.024,2.563,2.748,-0.042,0.2537,0.4049,0.46,-0.482,-9.698,-0.000274,-0.000288,0.001763
56.14705514907837,-92.024,2.564,2.749,-0.043,0.2585,0.406,0.488,-0.478,-9.726,0.000747,8.8e-05,0.001235
56.19249606132507,-92.021,2.564,2.749,-0.0399,0.2548,0.3996,0.46,-0.467,-9.732,-0.001129,0.000464,0.001322
56.23013401031494,-92.02,2.564,2.749,-0.0442,0.2525,0.4061,0.469,-0.458,-9.757,0.00095,-0.001214,0.00144
56.29972314834595,-92.022,2.565,2.748,-0.0432,0.2512,0.4022,0.397,-0.442,-9.701,-0.000406,0.000909,0.00089
56.37450194358826,-92.025,2.565,2.747,-0.041,0.2524,0.4009,0.435,-0.454,-9.704,0.0003,-0.000907,0.000535
